t_sec,t_wall,LocX,LocY,LocZ,VelX,VelY,VelZ,Vel2D,AccX,AccY,AccZ,Acc2D,CIVmaxMag2D,Mode,GravScale,AnalogMod,TSFS,Gate,Living,F08,RandX,RandY
189.455,1788986933.701,2166.172,-825.081,-204.670,268.600,-137.945,-931.006,301.952,44477.302,-22842.277,0.000,50000.0,1.0000,3,1.0000,1.0000,0.6333,1,1,0x200265E1710,-0.255,0.967
189.595,1788986933.841,2200.244,-842.580,-341.872,242.886,-124.739,-1127.007,273.045,-12762.205,48343.832,0.000,50000.0,1.0000,3,1.0000,1.0000,0.8000,1,1,0x200265E1710,-0.255,0.967
189.711,1788986933.957,2231.055,-858.403,-500.878,219.634,-112.798,-1179.903,246.905,-12762.205,48343.832,0.000,50000.0,1.0000,3,1.0000,1.0000,0.9000,1,1,0x200265E1710,-0.255,0.967
189.820,1788986934.065,2252.211,-869.268,-620.964,203.667,-104.598,-1168.717,228.957,-12762.205,48343.832,0.000,50000.0,1.0000,3,1.0000,1.0000,1.0000,1,1,0x200265E1710,-0.255,0.967
189.928,1788986934.174,2271.829,-879.344,-739.853,188.862,-96.994,-1155.196,212.312,-12762.205,48343.832,0.000,50000.0,1.0000,3,1.0000,1.0000,1.1333,1,1,0x200265E1710,-0.255,0.967
190.031,1788986934.276,2295.787,-891.648,-896.112,170.781,-87.708,-1133.701,191.987,-12762.205,48343.832,0.000,50000.0,1.0000,3,1.0000,1.0000,1.2333,1,1,0x200265E1710,-0.255,0.967
190.153,1788986934.399,2312.237,-900.096,-1011.329,158.366,-81.332,-1115.133,178.030,-12762.205,48343.832,0.000,50000.0,1.0000,3,1.0000,1.0000,1.3333,1,1,0x200265E1710,-0.255,0.967
190.256,1788986934.501,2327.506,-907.938,-1124.735,146.843,-75.414,-1094.592,165.076,-12762.205,48343.832,0.000,50000.0,1.0000,3,1.0000,1.0000,1.4334,1,1,0x200265E1710,-0.255,0.967
190.370,1788986934.616,2346.134,-917.504,-1272.473,132.785,-68.195,-1064.448,149.273,-12762.205,48343.832,0.000,50000.0,1.0000,3,1.0000,1.0000,1.5668,1,1,0x200265E1710,-0.255,0.967
190.473,1788986934.719,2358.936,-924.080,-1380.672,123.123,-63.232,-1040.091,138.411,-12762.205,48343.832,0.000,50000.0,1.0000,3,1.0000,1.0000,1.6669,1,1,0x200265E1710,-0.255,0.967
190.576,1788986934.822,2370.796,-930.170,-1486.324,114.173,-58.636,-1016.147,128.349,-12762.205,48343.832,0.000,50000.0,1.0000,3,1.0000,1.0000,1.7669,1,1,0x200265E1710,-0.255,0.967
190.695,1788986934.941,2381.794,-935.819,-1589.642,105.873,-54.373,-1000.000,119.019,-12762.205,48343.832,0.000,50000.0,1.0000,3,1.0000,1.0000,1.9002,1,1,0x200265E1710,-0.255,0.967
190.798,1788986935.045,2391.992,-941.056,-1692.093,98.176,-50.421,-1000.000,110.367,-12762.205,48343.832,0.000,50000.0,1.0000,3,1.0000,1.0000,2.0002,1,1,0x200265E1710,-0.255,0.967
190.911,1788986935.157,2404.446,-947.452,-1828.695,88.777,-45.594,-1000.000,99.801,-12762.205,48343.832,0.000,50000.0,1.0000,3,1.0000,1.0000,2.1002,1,1,0x200265E1710,-0.255,0.967
191.014,1788986935.259,2412.997,-951.844,-1931.145,82.324,-42.279,-1000.000,92.546,-12762.205,48343.832,0.000,50000.0,1.0000,3,1.0000,1.0000,2.2002,1,1,0x200265E1710,-0.255,0.967
191.116,1788986935.362,2420.927,-955.916,-2033.596,76.339,-39.206,-1000.000,85.818,-12762.205,48343.832,0.000,50000.0,1.0000,3,1.0000,1.0000,2.3002,1,1,0x200265E1710,-0.255,0.967
191.244,1788986935.491,2430.611,-960.890,-2170.197,69.031,-35.452,-1000.000,77.603,-12762.205,48343.832,0.000,50000.0,1.0000,3,1.0000,1.0000,2.4335,1,1,0x200265E1710,-0.255,0.967
191.348,1788986935.594,2437.261,-964.305,-2272.662,64.012,-32.875,-1000.000,71.960,-12762.205,48343.832,0.000,50000.0,1.0000,3,1.0000,1.0000,2.5336,1,1,0x200265E1710,-0.255,0.967
191.461,1788986935.707,2443.427,-967.472,-2375.113,59.359,-30.485,-1000.000,66.729,-12762.205,48343.832,0.000,50000.0,1.0000,3,1.0000,1.0000,2.6669,1,1,0x200265E1710,-0.991,0.133
191.564,1788986935.810,2449.145,-970.408,-2477.564,55.044,-28.269,-1000.000,61.878,-49558.235,6631.846,0.000,50000.0,1.0000,3,1.0000,1.0000,2.7669,1,1,0x200265E1710,-0.991,0.133
191.686,1788986935.932,2456.127,-973.994,-2614.164,49.774,-25.563,-1000.000,55.954,-49558.235,6631.846,0.000,50000.0,1.0000,3,1.0000,1.0000,2.8669,1,1,0x200265E1710,-0.991,0.133
191.789,1788986936.035,2460.922,-976.456,-2716.615,46.156,-23.704,-1000.000,51.887,-49558.235,6631.846,0.000,50000.0,1.0000,3,1.0000,1.0000,2.9669,1,1,0x200265E1710,-0.991,0.133
191.911,1788986936.157,2466.777,-979.463,-2853.216,41.737,-21.435,-1000.000,46.920,-49558.235,6631.846,0.000,50000.0,1.0000,3,1.0000,1.0000,3.1002,1,1,0x200265E1710,-0.991,0.133
192.014,1788986936.259,2470.797,-981.528,-2955.666,38.703,-19.877,-1000.000,43.509,-49558.235,6631.846,0.000,50000.0,1.0000,3,1.0000,1.0000,3.2002,1,1,0x200265E1710,-0.991,0.133
192.127,1788986936.372,2474.525,-983.443,-3058.117,35.889,-18.432,-1000.000,40.346,-49558.235,6631.846,0.000,50000.0,1.0000,3,1.0000,1.0000,3.3002,1,1,0x200265E1710,-0.991,0.133
192.260,1788986936.506,2479.987,-986.248,-3221.093,31.781,-16.322,-1000.000,35.727,-49558.235,6631.846,0.000,50000.0,1.0000,3,1.0000,1.0000,3.4618,1,1,0x200265E1710,-0.991,0.133
192.363,1788986936.609,2483.149,-987.872,-3324.933,29.404,-15.101,-1000.000,33.055,-49558.235,6631.846,0.000,50000.0,1.0000,3,1.0000,1.0000,3.5694,1,1,0x200265E1710,-0.991,0.133
192.486,1788986936.731,2486.547,-989.617,-3446.199,26.852,-13.790,-1000.000,30.186,-49558.235,6631.846,0.000,50000.0,1.0000,3,1.0000,1.0000,3.6903,1,1,0x200265E1710,-0.991,0.133
192.611,1788986936.857,2489.735,-991.254,-3570.949,24.457,-12.560,-1000.000,27.494,-49558.235,6631.846,0.000,50000.0,1.0000,3,1.0000,1.0000,3.8157,1,1,0x200265E1710,-0.991,0.133
192.713,1788986936.960,2492.116,-992.477,-3672.425,22.668,-11.641,-1000.000,25.482,-49558.235,6631.846,0.000,50000.0,1.0000,3,1.0000,1.0000,3.9161,1,1,0x200265E1710,-0.991,0.133
192.827,1788986937.073,2494.618,-993.762,-3788.047,20.788,-10.676,-1000.000,23.369,-49558.235,6631.846,0.000,50000.0,1.0000,3,1.0000,1.0000,4.0310,1,1,0x200265E1710,-0.991,0.133
192.930,1788986937.175,2496.705,-994.833,-3892.704,19.221,-9.871,-1000.000,21.607,-49558.235,6631.846,0.000,50000.0,1.0000,3,1.0000,1.0000,4.1354,1,1,0x200265E1710,-0.991,0.133
193.044,1788986937.289,2498.778,-995.898,-4005.563,17.663,-9.071,-1000.000,19.856,-49558.235,6631.846,0.000,50000.0,1.0000,3,1.0000,1.0000,4.2479,1,1,0x200265E1710,-0.991,0.133
193.145,1788986937.392,2500.556,-996.811,-4110.525,16.328,-8.385,-1000.000,18.355,-49558.235,6631.846,0.000,50000.0,1.0000,3,1.0000,1.0000,4.3484,1,1,0x200265E1710,-0.991,0.133
193.261,1788986937.507,2502.340,-997.728,-4224.894,14.988,-7.697,-1000.000,16.848,-49558.235,6631.846,0.000,50000.0,1.0000,3,1.0000,1.0000,4.4665,1,1,0x200265E1710,-0.991,0.133
193.364,1788986937.610,2503.818,-998.487,-4327.801,13.876,-7.126,-1000.000,15.599,-49558.235,6631.846,0.000,50000.0,1.0000,3,1.0000,1.0000,4.5690,1,1,0x200265E1710,-0.991,0.133
193.467,1788986937.713,2505.167,-999.180,-4429.185,12.862,-6.606,-1000.000,14.459,-48870.161,10569.170,0.000,50000.0,1.0000,3,1.0000,1.0000,4.6700,1,1,0x200265E1710,-0.977,0.211
193.593,1788986937.839,2506.707,-999.971,-4555.073,11.705,-6.012,-1000.000,13.159,-48870.161,10569.170,0.000,50000.0,1.0000,3,1.0000,1.0000,4.7913,1,1,0x200265E1710,-0.977,0.211
193.696,1788986937.942,2507.880,-1000.573,-4659.558,10.825,-5.559,-1000.000,12.169,-48870.161,10569.170,0.000,50000.0,1.0000,3,1.0000,1.0000,4.8999,1,1,0x200265E1710,-0.977,0.211
193.804,1788986938.048,2509.012,-1001.154,-4768.837,9.974,-5.122,-1000.000,11.212,-48870.161,10569.170,0.000,50000.0,1.0000,3,1.0000,1.0000,5.0085,1,1,0x200265E1710,-0.977,0.211
193.905,1788986938.151,2509.973,-1001.648,-4869.164,9.252,-4.752,-1000.000,10.401,-48870.161,10569.170,0.000,50000.0,1.0000,3,1.0000,1.0000,5.1085,1,1,0x200265E1710,-0.977,0.211
194.026,1788986938.272,2511.035,-1002.193,-4989.511,8.455,-4.342,-1000.000,9.505,-48870.161,10569.170,0.000,50000.0,1.0000,3,1.0000,1.0000,5.2286,1,1,0x200265E1710,-0.977,0.211
194.129,1788986938.375,2511.876,-1002.625,-5093.357,7.822,-4.017,-1000.000,8.794,-48870.161,10569.170,0.000,50000.0,1.0000,3,1.0000,1.0000,5.3320,1,1,0x200265E1710,-0.977,0.211
194.252,1788986938.497,2512.793,-1003.096,-5216.520,7.133,-3.663,-1000.000,8.019,-48870.161,10569.170,0.000,50000.0,1.0000,3,1.0000,1.0000,5.4570,1,1,0x200265E1710,-0.977,0.211
194.354,1788986938.601,2513.497,-1003.458,-5319.465,6.604,-3.392,-1000.000,7.424,-48870.161,10569.170,0.000,50000.0,1.0000,3,1.0000,1.0000,5.5617,1,1,0x200265E1710,-0.977,0.211
194.486,1788986938.732,2514.329,-1003.885,-5452.122,5.980,-3.071,-1000.000,6.722,-48870.161,10569.170,0.000,50000.0,1.0000,3,1.0000,1.0000,5.6895,1,1,0x200265E1710,-0.977,0.211
194.593,1788986938.839,2514.946,-1004.201,-5559.842,5.516,-2.833,-1000.000,6.201,-48870.161,10569.170,0.000,50000.0,1.0000,3,1.0000,1.0000,5.7969,1,1,0x200265E1710,-0.977,0.211
194.696,1788986938.942,2515.493,-1004.483,-5663.415,5.105,-2.622,-1000.000,5.738,-48870.161,10569.170,0.000,50000.0,1.0000,3,1.0000,1.0000,5.8959,1,1,0x200265E1710,-0.977,0.211
194.802,1788986939.047,2515.996,-1004.741,-5766.032,4.727,-2.428,-1000.000,5.314,-48870.161,10569.170,0.000,50000.0,1.0000,3,1.0000,1.0000,6.0046,1,1,0x200265E1710,-0.977,0.211
194.905,1788986939.149,2516.489,-1004.994,-5875.154,4.356,-2.237,-1000.000,4.897,-48870.161,10569.170,0.000,50000.0,1.0000,3,1.0000,1.0000,6.1069,1,1,0x200265E1710,-0.977,0.211
195.026,1788986939.273,2516.976,-1005.244,-5992.116,3.991,-2.050,-1000.000,4.487,-48870.161,10569.170,0.000,50000.0,1.0000,3,1.0000,1.0000,6.2305,1,1,0x200265E1710,-0.977,0.211
195.152,1788986939.397,2517.468,-1005.497,-6122.109,3.621,-1.860,-1000.000,4.070,-48870.161,10569.170,0.000,50000.0,1.0000,3,1.0000,1.0000,6.3572,1,1,0x200265E1710,-0.977,0.211
195.255,1788986939.501,2517.833,-1005.684,-6227.076,3.347,-1.719,-1000.000,3.763,-48870.161,10569.170,0.000,50000.0,1.0000,3,1.0000,1.0000,6.4618,1,1,0x200265E1710,-0.977,0.211
195.377,1788986939.622,2518.221,-1005.884,-6348.923,3.055,-1.569,-1000.000,3.435,-48870.161,10569.170,0.000,50000.0,1.0000,3,1.0000,1.0000,6.5791,1,1,0x200265E1710,-0.977,0.211
195.485,1788986939.731,2518.539,-1006.047,-6457.648,2.816,-1.446,-1000.000,3.166,-20315.225,45686.887,0.000,50000.0,1.0000,3,1.0000,1.0000,6.6916,1,1,0x200265E1710,-0.406,0.914
195.588,1788986939.835,2518.815,-1006.189,-6559.992,2.609,-1.340,-1000.000,2.933,-20315.225,45686.887,0.000,50000.0,1.0000,3,1.0000,1.0000,6.7936,1,1,0x200265E1710,-0.406,0.914
195.709,1788986939.955,2519.111,-1006.341,-6679.031,2.386,-1.226,-1000.000,2.683,-20315.225,45686.887,0.000,50000.0,1.0000,3,1.0000,1.0000,6.9122,1,1,0x200265E1710,-0.406,0.914
195.813,1788986940.060,2519.350,-1006.463,-6783.247,2.207,-1.134,-1000.000,2.481,-20315.225,45686.887,0.000,50000.0,1.0000,3,1.0000,1.0000,7.0203,1,1,0x200265E1710,-0.406,0.914
195.927,1788986940.173,2519.589,-1006.586,-6896.523,2.028,-1.041,-1000.000,2.279,-20315.225,45686.887,0.000,50000.0,1.0000,3,1.0000,1.0000,7.1290,1,1,0x200265E1710,-0.406,0.914
196.030,1788986940.276,2519.791,-1006.690,-7000.320,1.876,-0.963,-1000.000,2.109,-20315.225,45686.887,0.000,50000.0,1.0000,3,1.0000,1.0000,7.2340,1,1,0x200265E1710,-0.406,0.914
196.168,1788986940.414,2520.041,-1006.819,-7141.753,1.688,-0.867,-1000.000,1.897,-20315.225,45686.887,0.000,50000.0,1.0000,3,1.0000,1.0000,7.3691,1,1,0x200265E1710,-0.406,0.914
196.271,1788986940.517,2520.208,-1006.904,-7244.723,1.562,-0.802,-1000.000,1.756,-20315.225,45686.887,0.000,50000.0,1.0000,3,1.0000,1.0000,7.4759,1,1,0x200265E1710,-0.406,0.914
196.376,1788986940.622,2520.365,-1006.985,-7349.471,1.444,-0.742,-1000.000,1.624,-20315.225,45686.887,0.000,50000.0,1.0000,3,1.0000,1.0000,7.5804,1,1,0x200265E1710,-0.406,0.914
196.480,1788986940.726,2520.510,-1007.059,-7454.008,1.336,-0.686,-1000.000,1.502,-20315.225,45686.887,0.000,50000.0,1.0000,3,1.0000,1.0000,7.6846,1,1,0x200265E1710,-0.406,0.914
196.601,1788986940.847,2520.664,-1007.138,-7575.368,1.220,-0.626,-1000.000,1.371,-20315.225,45686.887,0.000,50000.0,1.0000,3,1.0000,1.0000,7.8056,1,1,0x200265E1710,-0.406,0.914
196.709,1788986940.954,2520.791,-1007.204,-7684.115,1.124,-0.577,-1000.000,1.264,-20315.225,45686.887,0.000,50000.0,1.0000,3,1.0000,1.0000,7.9140,1,1,0x200265E1710,-0.406,0.914
196.826,1788986941.072,2520.917,-1007.268,-7801.330,1.030,-0.529,-1000.000,1.158,-20315.225,45686.887,0.000,50000.0,1.0000,3,1.0000,1.0000,8.0308,1,1,0x200265E1710,-0.406,0.914
196.929,1788986941.176,2521.019,-1007.320,-7904.018,0.954,-0.490,-1000.000,1.072,-20315.225,45686.887,0.000,50000.0,1.0000,3,1.0000,1.0000,8.1336,1,1,0x200265E1710,-0.406,0.914
197.051,1788986941.297,2521.131,-1007.378,-8027.488,0.869,-0.446,-1000.000,0.977,-20315.225,45686.887,0.000,50000.0,1.0000,3,1.0000,1.0000,8.2563,1,1,0x200265E1710,-0.406,0.914
197.155,1788986941.401,2521.218,-1007.423,-8132.466,0.804,-0.413,-1000.000,0.903,-20315.225,45686.887,0.000,50000.0,1.0000,3,1.0000,1.0000,8.3609,1,1,0x200265E1710,-0.406,0.914
197.268,1788986941.513,2521.303,-1007.466,-8242.254,0.740,-0.380,-1000.000,0.832,-20315.225,45686.887,0.000,50000.0,1.0000,3,1.0000,1.0000,8.4715,1,1,0x200265E1710,-0.406,0.914
197.370,1788986941.615,2521.377,-1007.504,-8347.007,0.684,-0.351,-1000.000,0.769,-20315.225,45686.887,0.000,50000.0,1.0000,3,1.0000,1.0000,8.5748,1,1,0x200265E1710,-0.406,0.914
197.473,1788986941.718,2521.446,-1007.540,-8451.845,0.633,-0.325,-1000.000,0.711,25053.261,43270.476,0.000,50000.0,1.0000,3,1.0000,1.0000,8.6751,1,1,0x200265E1710,0.501,0.865
197.584,1788986941.830,2521.513,-1007.574,-8562.434,0.582,-0.299,-1000.000,0.655,25053.261,43270.476,0.000,50000.0,1.0000,3,1.0000,1.0000,8.7895,1,1,0x200265E1710,0.501,0.865
197.688,1788986941.934,2521.570,-1007.604,-8665.131,0.539,-0.277,-1000.000,0.606,25053.261,43270.476,0.000,50000.0,1.0000,3,1.0000,1.0000,8.8919,1,1,0x200265E1710,0.501,0.865
197.809,1788986942.055,2521.633,-1007.636,-8787.477,0.492,-0.253,-1000.000,0.553,25053.261,43270.476,0.000,50000.0,1.0000,3,1.0000,1.0000,9.0138,1,1,0x200265E1710,0.501,0.865
197.934,1788986942.180,2521.692,-1007.666,-8912.870,0.448,-0.230,-1000.000,0.504,25053.261,43270.476,0.000,50000.0,1.0000,3,1.0000,1.0000,9.1388,1,1,0x200265E1710,0.501,0.865
198.037,1788986942.283,2521.737,-1007.689,-9017.413,0.414,-0.213,-1000.000,0.466,25053.261,43270.476,0.000,50000.0,1.0000,3,1.0000,1.0000,9.2431,1,1,0x200265E1710,0.501,0.865
198.140,1788986942.386,2521.777,-1007.710,-9117.963,0.384,-0.197,-1000.000,0.432,25053.261,43270.476,0.000,50000.0,1.0000,3,1.0000,1.0000,9.3433,1,1,0x200265E1710,0.501,0.865
198.283,1788986942.529,2521.830,-1007.737,-9264.413,0.344,-0.177,-1000.000,0.387,25053.261,43270.476,0.000,50000.0,1.0000,3,1.0000,1.0000,9.4893,1,1,0x200265E1710,0.501,0.865
198.386,1788986942.633,2521.864,-1007.755,-9368.917,0.318,-0.164,-1000.000,0.358,25053.261,43270.476,0.000,50000.0,1.0000,3,1.0000,1.0000,9.5935,1,1,0x200265E1710,0.501,0.865
198.508,1788986942.754,2521.901,-1007.774,-9490.197,0.291,-0.149,-1000.000,0.327,25053.261,43270.476,0.000,50000.0,1.0000,3,1.0000,1.0000,9.7144,1,1,0x200265E1710,0.501,0.865
198.611,1788986942.857,2521.930,-1007.789,-9594.781,0.269,-0.138,-1000.000,0.302,25053.261,43270.476,0.000,50000.0,1.0000,3,1.0000,1.0000,9.8145,1,1,0x200265E1710,0.501,0.865
198.725,1788986942.972,2521.959,-1007.803,-9707.857,0.247,-0.127,-1000.000,0.278,25053.261,43270.476,0.000,50000.0,1.0000,3,1.0000,1.0000,9.9314,1,1,0x200265E1710,0.501,0.865
198.829,1788986943.075,2521.984,-1007.816,-9812.522,0.228,-0.117,-1000.000,0.257,25053.261,43270.476,0.000,50000.0,1.0000,3,1.0000,1.0000,10.0357,1,1,0x200265E1710,0.501,0.865
198.932,1788986943.177,2522.006,-1007.828,-9913.445,0.212,-0.109,-1000.000,0.238,25053.261,43270.476,0.000,50000.0,1.0000,3,1.0000,1.0000,10.1363,1,1,0x200265E1710,0.501,0.865
199.058,1788986943.305,2522.031,-1007.841,-10039.465,0.193,-0.099,-1000.000,0.217,25053.261,43270.476,0.000,50000.0,1.0000,3,1.0000,1.0000,10.2619,1,1,0x200265E1710,0.501,0.865
199.162,1788986943.407,2522.051,-1007.851,-10144.060,0.178,-0.092,-1000.000,0.200,25053.261,43270.476,0.000,50000.0,1.0000,3,1.0000,1.0000,10.3662,1,1,0x200265E1710,0.501,0.865
199.266,1788986943.512,2522.069,-1007.860,-10248.551,0.165,-0.085,-1000.000,0.185,25053.261,43270.476,0.000,50000.0,1.0000,3,1.0000,1.0000,10.4704,1,1,0x200265E1710,0.501,0.865
199.369,1788986943.614,2522.085,-1007.868,-10353.600,0.152,-0.078,-1000.000,0.171,25053.261,43270.476,0.000,50000.0,1.0000,3,1.0000,1.0000,10.5751,1,1,0x200265E1710,0.501,0.865
199.472,1788986943.718,2522.100,-1007.876,-10458.229,0.141,-0.072,-1000.000,0.158,-18129.380,46597.485,0.000,50000.0,1.0000,3,1.0000,1.0000,10.6794,1,1,0x200265E1710,-0.363,0.932
199.576,1788986943.822,2522.114,-1007.883,-10558.540,0.131,-0.067,-1000.000,0.147,-18129.380,46597.485,0.000,50000.0,1.0000,3,1.0000,1.0000,10.7794,1,1,0x200265E1710,-0.363,0.932
199.708,1788986943.955,2522.131,-1007.892,-10692.288,0.118,-0.061,-1000.000,0.133,-18129.380,46597.485,0.000,50000.0,1.0000,3,1.0000,1.0000,10.9127,1,1,0x200265E1710,-0.363,0.932
199.811,1788986944.058,2522.142,-1007.898,-10796.880,0.109,-0.056,-1000.000,0.123,-18129.380,46597.485,0.000,50000.0,1.0000,3,1.0000,1.0000,11.0170,1,1,0x200265E1710,-0.363,0.932
199.915,1788986944.161,2522.153,-1007.903,-10901.396,0.101,-0.052,-1000.000,0.114,-18129.380,46597.485,0.000,50000.0,1.0000,3,1.0000,1.0000,11.1212,1,1,0x200265E1710,-0.363,0.932
200.018,1788986944.263,2522.163,-1007.908,-11002.846,0.094,-0.048,-1000.000,0.105,-18129.380,46597.485,0.000,50000.0,1.0000,3,1.0000,1.0000,11.2181,1,1,0x200265E1710,-0.363,0.932
200.150,1788986944.396,2522.175,-1007.914,-11135.375,0.085,-0.044,-1000.000,0.095,-18129.380,46597.485,0.000,50000.0,1.0000,3,1.0000,1.0000,11.3543,1,1,0x200265E1710,-0.363,0.932
200.253,1788986944.499,2522.184,-1007.919,-11240.594,0.078,-0.040,-1000.000,0.088,-18129.380,46597.485,0.000,50000.0,1.0000,3,1.0000,1.0000,11.4551,1,1,0x200265E1710,-0.363,0.932
200.383,1788986944.631,2522.193,-1007.923,-11365.109,0.071,-0.037,-1000.000,0.080,-18129.380,46597.485,0.000,50000.0,1.0000,3,1.0000,1.0000,11.5856,1,1,0x200265E1710,-0.363,0.932
200.488,1788986944.735,2522.200,-1007.927,-11474.616,0.066,-0.034,-1000.000,0.074,-18129.380,46597.485,0.000,50000.0,1.0000,3,1.0000,1.0000,11.6927,1,1,0x200265E1710,-0.363,0.932
200.600,1788986944.846,2522.208,-1007.931,-11588.179,0.060,-0.031,-1000.000,0.068,-18129.380,46597.485,0.000,50000.0,1.0000,3,1.0000,1.0000,11.8057,1,1,0x200265E1710,-0.363,0.932
200.702,1788986944.948,2522.213,-1007.934,-11688.523,0.056,-0.029,-1000.000,0.063,-18129.380,46597.485,0.000,50000.0,1.0000,3,1.0000,1.0000,11.9057,1,1,0x200265E1710,-0.363,0.932
200.806,1788986945.052,2522.219,-1007.937,-11793.056,0.052,-0.027,-1000.000,0.058,-18129.380,46597.485,0.000,50000.0,1.0000,3,1.0000,1.0000,12.0099,1,1,0x200265E1710,-0.363,0.932
200.908,1788986945.155,2522.224,-1007.939,-11894.459,0.048,-0.025,-1000.000,0.054,-18129.380,46597.485,0.000,50000.0,1.0000,3,1.0000,1.0000,12.1117,1,1,0x200265E1710,-0.363,0.932
201.024,1788986945.270,2522.229,-1007.942,-12013.682,0.044,-0.023,-1000.000,0.049,-18129.380,46597.485,0.000,50000.0,1.0000,3,1.0000,1.0000,12.2298,1,1,0x200265E1710,-0.363,0.932
201.127,1788986945.373,2522.234,-1007.944,-12114.524,0.041,-0.021,-1000.000,0.046,-18129.380,46597.485,0.000,50000.0,1.0000,3,1.0000,1.0000,12.3306,1,1,0x200265E1710,-0.363,0.932
201.230,1788986945.476,2522.238,-1007.947,-12218.760,0.038,-0.019,-1000.000,0.042,-18129.380,46597.485,0.000,50000.0,1.0000,3,1.0000,1.0000,12.4342,1,1,0x200265E1710,-0.363,0.932
201.342,1788986945.588,2522.242,-1007.949,-12333.516,0.035,-0.018,-1000.000,0.039,-18129.380,46597.485,0.000,50000.0,1.0000,3,1.0000,1.0000,12.5444,1,1,0x200265E1710,-0.363,0.932
201.458,1788986945.704,2522.246,-1007.951,-12448.071,0.032,-0.016,-1000.000,0.036,47809.857,-14636.173,0.000,50000.0,1.0000,3,1.0000,1.0000,12.6635,1,1,0x200265E1710,0.956,-0.293
201.561,1788986945.807,2522.249,-1007.952,-12552.928,0.029,-0.015,-1000.000,0.033,47809.857,-14636.173,0.000,50000.0,1.0000,3,1.0000,1.0000,12.7673,1,1,0x200265E1710,0.956,-0.293
201.664,1788986945.911,2522.251,-1007.953,-12654.077,0.000,0.000,-1000.000,0.000,47809.857,-14636.173,0.000,50000.0,1.0000,3,1.0000,1.0000,12.8681,1,1,0x200265E1710,0.956,-0.293
201.774,1788986946.020,2522.251,-1007.953,-12767.085,0.000,0.000,-1000.000,0.000,47809.857,-14636.173,0.000,50000.0,1.0000,3,1.0000,1.0000,12.9808,1,1,0x200265E1710,0.956,-0.293
201.891,1788986946.137,2522.251,-1007.953,-12884.269,0.000,0.000,-1000.000,0.000,47809.857,-14636.173,0.000,50000.0,1.0000,3,1.0000,1.0000,13.0934,1,1,0x200265E1710,0.956,-0.293
201.999,1788986946.245,2522.251,-1007.953,-12990.838,0.000,0.000,-1000.000,0.000,47809.857,-14636.173,0.000,50000.0,1.0000,3,1.0000,1.0000,13.1996,1,1,0x200265E1710,0.956,-0.293
202.103,1788986946.349,2522.251,-1007.953,-13095.444,0.000,0.000,-1000.000,0.000,47809.857,-14636.173,0.000,50000.0,1.0000,3,1.0000,1.0000,13.3080,1,1,0x200265E1710,0.956,-0.293
202.206,1788986946.451,2522.251,-1007.953,-13194.359,0.000,0.000,-1000.000,0.000,47809.857,-14636.173,0.000,50000.0,1.0000,3,1.0000,1.0000,13.4077,1,1,0x200265E1710,0.956,-0.293
202.324,1788986946.570,2522.251,-1007.953,-13317.841,0.000,0.000,-1000.000,0.000,47809.857,-14636.173,0.000,50000.0,1.0000,3,1.0000,1.0000,13.5297,1,1,0x200265E1710,0.956,-0.293
202.432,1788986946.677,2522.251,-1007.953,-13427.056,0.000,0.000,-1000.000,0.000,47809.857,-14636.173,0.000,50000.0,1.0000,3,1.0000,1.0000,13.6344,1,1,0x200265E1710,0.956,-0.293
202.535,1788986946.781,2522.251,-1007.953,-13524.131,0.000,0.000,-1000.000,0.000,47809.857,-14636.173,0.000,50000.0,1.0000,3,1.0000,1.0000,13.7407,1,1,0x200265E1710,0.956,-0.293
202.637,1788986946.883,2522.251,-1007.953,-13632.883,0.000,0.000,-1000.000,0.000,47809.857,-14636.173,0.000,50000.0,1.0000,3,1.0000,1.0000,13.8395,1,1,0x200265E1710,0.956,-0.293
202.766,1788986947.012,2522.251,-1007.953,-13760.253,0.000,0.000,-1000.000,0.000,47809.857,-14636.173,0.000,50000.0,1.0000,3,1.0000,1.0000,13.9706,1,1,0x200265E1710,0.956,-0.293
202.873,1788986947.120,2522.251,-1007.953,-13869.990,0.000,0.000,-1000.000,0.000,47809.857,-14636.173,0.000,50000.0,1.0000,3,1.0000,1.0000,14.0800,1,1,0x200265E1710,0.956,-0.293
202.977,1788986947.223,2522.251,-1007.953,-13971.677,0.000,0.000,-1000.000,0.000,47809.857,-14636.173,0.000,50000.0,1.0000,3,1.0000,1.0000,14.1771,1,1,0x200265E1710,0.956,-0.293
203.080,1788986947.325,2522.251,-1007.953,-14075.406,0.000,0.000,-1000.000,0.000,47809.857,-14636.173,0.000,50000.0,1.0000,3,1.0000,1.0000,14.2846,1,1,0x200265E1710,0.956,-0.293
203.182,1788986947.428,2522.251,-1007.953,-14177.778,0.000,0.000,-1000.000,0.000,47809.857,-14636.173,0.000,50000.0,1.0000,3,1.0000,1.0000,14.3867,1,1,0x200265E1710,0.956,-0.293
203.284,1788986947.530,2522.251,-1007.953,-14282.527,0.000,0.000,-1000.000,0.000,47809.857,-14636.173,0.000,50000.0,1.0000,3,1.0000,1.0000,14.4869,1,1,0x200265E1710,0.956,-0.293
203.407,1788986947.652,2522.251,-1007.953,-14403.210,0.000,0.000,-1000.000,0.000,47809.857,-14636.173,0.000,50000.0,1.0000,3,1.0000,1.0000,14.6113,1,1,0x200265E1710,0.956,-0.293
203.510,1788986947.755,2522.251,-1007.953,-14509.341,0.000,0.000,-1000.000,0.000,-47451.385,-15759.634,0.000,50000.0,1.0000,3,1.0000,1.0000,14.7130,1,1,0x200265E1710,-0.949,-0.315
203.623,1788986947.869,2522.251,-1007.953,-14619.599,0.000,0.000,-1000.000,0.000,-47451.385,-15759.634,0.000,50000.0,1.0000,3,1.0000,1.0000,14.8270,1,1,0x200265E1710,-0.949,-0.315
203.726,1788986947.971,2522.251,-1007.953,-14724.192,0.000,0.000,-1000.000,0.000,-47451.385,-15759.634,0.000,50000.0,1.0000,3,1.0000,1.0000,14.9313,1,1,0x200265E1710,-0.949,-0.315
203.848,1788986948.094,2522.251,-1007.953,-14846.229,0.000,0.000,-1000.000,0.000,-47451.385,-15759.634,0.000,50000.0,1.0000,3,1.0000,1.0000,15.0529,1,1,0x200265E1710,-0.949,-0.315
203.951,1788986948.196,2522.251,-1007.953,-14951.079,0.000,0.000,-1000.000,0.000,-47451.385,-15759.634,0.000,50000.0,1.0000,3,1.0000,1.0000,15.1533,1,1,0x200265E1710,-0.949,-0.315
204.065,1788986948.310,2522.251,-1007.953,-15062.395,0.000,0.000,-1000.000,0.000,-47451.385,-15759.634,0.000,50000.0,1.0000,3,1.0000,1.0000,15.2684,1,1,0x200265E1710,-0.949,-0.315
204.181,1788986948.427,2522.251,-1007.953,-15180.850,0.000,0.000,-1000.000,0.000,-47451.385,-15759.634,0.000,50000.0,1.0000,3,1.0000,1.0000,15.3865,1,1,0x200265E1710,-0.949,-0.315
204.298,1788986948.544,2522.251,-1007.953,-15299.000,0.000,0.000,-1000.000,0.000,-47451.385,-15759.634,0.000,50000.0,1.0000,3,1.0000,1.0000,15.5043,1,1,0x200265E1710,-0.949,-0.315
204.403,1788986948.652,2522.251,-1007.953,-15403.324,0.000,0.000,-1000.000,0.000,-47451.385,-15759.634,0.000,50000.0,1.0000,3,1.0000,1.0000,15.6120,1,1,0x200265E1710,-0.949,-0.315
204.539,1788986948.785,2522.251,-1007.953,-15538.467,0.000,0.000,-1000.000,0.000,-47451.385,-15759.634,0.000,50000.0,1.0000,3,1.0000,1.0000,15.7426,1,1,0x200265E1710,-0.949,-0.315
204.642,1788986948.888,2522.251,-1007.953,-15640.977,0.000,0.000,-1000.000,0.000,-47451.385,-15759.634,0.000,50000.0,1.0000,3,1.0000,1.0000,15.8449,1,1,0x200265E1710,-0.949,-0.315
204.748,1788986948.993,2522.251,-1007.953,-15747.467,0.000,0.000,-1000.000,0.000,-47451.385,-15759.634,0.000,50000.0,1.0000,3,1.0000,1.0000,15.9509,1,1,0x200265E1710,-0.949,-0.315
204.856,1788986949.102,2522.251,-1007.953,-15857.130,0.000,0.000,-1000.000,0.000,-47451.385,-15759.634,0.000,50000.0,1.0000,3,1.0000,1.0000,16.0560,1,1,0x200265E1710,-0.949,-0.315
204.975,1788986949.221,2522.251,-1007.953,-15978.804,0.000,0.000,-1000.000,0.000,-47451.385,-15759.634,0.000,50000.0,1.0000,3,1.0000,1.0000,16.1815,1,1,0x200265E1710,-0.949,-0.315
205.097,1788986949.342,2522.251,-1007.953,-16099.227,0.000,0.000,-1000.000,0.000,-47451.385,-15759.634,0.000,50000.0,1.0000,3,1.0000,1.0000,16.3015,1,1,0x200265E1710,-0.949,-0.315
205.209,1788986949.455,2522.251,-1007.953,-16213.187,0.000,0.000,-1000.000,0.000,-47451.385,-15759.634,0.000,50000.0,1.0000,3,1.0000,1.0000,16.4151,1,1,0x200265E1710,-0.949,-0.315
205.331,1788986949.578,2522.251,-1007.953,-16331.759,0.000,0.000,-1000.000,0.000,-47451.385,-15759.634,0.000,50000.0,1.0000,3,1.0000,1.0000,16.5344,1,1,0x200265E1710,-0.949,-0.315
205.435,1788986949.680,2522.251,-1007.953,-16436.810,0.000,0.000,-1000.000,0.000,-47451.385,-15759.634,0.000,50000.0,1.0000,3,1.0000,1.0000,16.6390,1,1,0x200265E1710,-0.949,-0.315
205.537,1788986949.783,2522.251,-1007.953,-16541.031,0.000,0.000,-1000.000,0.000,-46238.567,19026.165,0.000,50000.0,1.0000,3,1.0000,1.0000,16.7423,1,1,0x200265E1710,-0.925,0.381
205.640,1788986949.886,2522.251,-1007.953,-16646.064,0.000,0.000,-1000.000,0.000,-46238.567,19026.165,0.000,50000.0,1.0000,3,1.0000,1.0000,16.8424,1,1,0x200265E1710,-0.925,0.381
205.748,1788986949.993,2522.251,-1007.953,-16753.866,0.000,0.000,-1000.000,0.000,-46238.567,19026.165,0.000,50000.0,1.0000,3,1.0000,1.0000,16.9498,1,1,0x200265E1710,-0.925,0.381
205.856,1788986950.102,2522.251,-1007.953,-16863.143,0.000,0.000,-1000.000,0.000,-46238.567,19026.165,0.000,50000.0,1.0000,3,1.0000,1.0000,17.0588,1,1,0x200265E1710,-0.925,0.381
205.972,1788986950.218,2522.251,-1007.953,-16976.552,0.000,0.000,-1000.000,0.000,-46238.567,19026.165,0.000,50000.0,1.0000,3,1.0000,1.0000,17.1760,1,1,0x200265E1710,-0.925,0.381
206.081,1788986950.326,2522.251,-1007.953,-17085.083,0.000,0.000,-1000.000,0.000,-46238.567,19026.165,0.000,50000.0,1.0000,3,1.0000,1.0000,17.2842,1,1,0x200265E1710,-0.925,0.381
206.183,1788986950.429,2522.251,-1007.953,-17189.832,0.000,0.000,-1000.000,0.000,-46238.567,19026.165,0.000,50000.0,1.0000,3,1.0000,1.0000,17.3886,1,1,0x200265E1710,-0.925,0.381
206.314,1788986950.561,2522.251,-1007.953,-17317.846,0.000,0.000,-1000.000,0.000,-46238.567,19026.165,0.000,50000.0,1.0000,3,1.0000,1.0000,17.5169,1,1,0x200265E1710,-0.925,0.381
206.418,1788986950.664,2522.251,-1007.953,-17427.066,0.000,0.000,-1000.000,0.000,-46238.567,19026.165,0.000,50000.0,1.0000,3,1.0000,1.0000,17.6209,1,1,0x200265E1710,-0.925,0.381
206.531,1788986950.777,2522.251,-1007.953,-17537.504,0.000,0.000,-1000.000,0.000,-46238.567,19026.165,0.000,50000.0,1.0000,3,1.0000,1.0000,17.7351,1,1,0x200265E1710,-0.925,0.381
206.639,1788986950.884,2522.251,-1007.953,-17646.367,0.000,0.000,-1000.000,0.000,-46238.567,19026.165,0.000,50000.0,1.0000,3,1.0000,1.0000,17.8437,1,1,0x200265E1710,-0.925,0.381
206.747,1788986950.993,2522.251,-1007.953,-17753.368,0.000,0.000,-1000.000,0.000,-46238.567,19026.165,0.000,50000.0,1.0000,3,1.0000,1.0000,17.9509,1,1,0x200265E1710,-0.925,0.381
206.863,1788986951.109,2522.251,-1007.953,-17871.906,0.000,0.000,-1000.000,0.000,-46238.567,19026.165,0.000,50000.0,1.0000,3,1.0000,1.0000,18.0687,1,1,0x200265E1710,-0.925,0.381
206.966,1788986951.213,2522.251,-1007.953,-17974.552,0.000,0.000,-1000.000,0.000,-46238.567,19026.165,0.000,50000.0,1.0000,3,1.0000,1.0000,18.1708,1,1,0x200265E1710,-0.925,0.381
207.080,1788986951.325,2522.251,-1007.953,-18083.400,0.000,0.000,-1000.000,0.000,-46238.567,19026.165,0.000,50000.0,1.0000,3,1.0000,1.0000,18.2751,1,1,0x200265E1710,-0.925,0.381
207.205,1788986951.450,2522.251,-1007.953,-18211.572,0.000,0.000,-1000.000,0.000,-46238.567,19026.165,0.000,50000.0,1.0000,3,1.0000,1.0000,18.4028,1,1,0x200265E1710,-0.925,0.381
207.308,1788986951.554,2522.251,-1007.953,-18318.862,0.000,0.000,-1000.000,0.000,-46238.567,19026.165,0.000,50000.0,1.0000,3,1.0000,1.0000,18.5097,1,1,0x200265E1710,-0.925,0.381
207.431,1788986951.677,2522.251,-1007.953,-18442.625,0.000,0.000,-1000.000,0.000,-46238.567,19026.165,0.000,50000.0,1.0000,3,1.0000,1.0000,18.6330,1,1,0x200265E1710,-0.925,0.381
207.534,1788986951.781,2522.251,-1007.953,-18546.235,0.000,0.000,-1000.000,0.000,-23507.053,-44129.564,0.000,50000.0,1.0000,3,1.0000,1.0000,18.7363,1,1,0x200265E1710,-0.470,-0.883
207.647,1788986951.892,2522.251,-1007.953,-18656.139,0.000,0.000,-1000.000,0.000,-23507.053,-44129.564,0.000,50000.0,1.0000,3,1.0000,1.0000,18.8509,1,1,0x200265E1710,-0.470,-0.883
207.764,1788986952.010,2522.251,-1007.953,-18776.396,0.000,0.000,-1000.000,0.000,-23507.053,-44129.564,0.000,50000.0,1.0000,3,1.0000,1.0000,18.9698,1,1,0x200265E1710,-0.470,-0.883
207.867,1788986952.113,2522.251,-1007.953,-18876.903,0.000,0.000,-1000.000,0.000,-23507.053,-44129.564,0.000,50000.0,1.0000,3,1.0000,1.0000,19.0700,1,1,0x200265E1710,-0.470,-0.883
207.971,1788986952.217,2522.251,-1007.953,-18983.045,0.000,0.000,-1000.000,0.000,-23507.053,-44129.564,0.000,50000.0,1.0000,3,1.0000,1.0000,19.1759,1,1,0x200265E1710,-0.470,-0.883
208.074,1788986952.319,2522.251,-1007.953,-19087.810,0.000,0.000,-1000.000,0.000,-23507.053,-44129.564,0.000,50000.0,1.0000,3,1.0000,1.0000,19.2761,1,1,0x200265E1710,-0.470,-0.883
208.188,1788986952.434,2522.251,-1007.953,-19201.574,0.000,0.000,-1000.000,0.000,-23507.053,-44129.564,0.000,50000.0,1.0000,3,1.0000,1.0000,19.3937,1,1,0x200265E1710,-0.470,-0.883
208.291,1788986952.537,2522.251,-1007.953,-19304.366,0.000,0.000,-1000.000,0.000,-23507.053,-44129.564,0.000,50000.0,1.0000,3,1.0000,1.0000,19.4961,1,1,0x200265E1710,-0.470,-0.883
208.395,1788986952.641,2522.251,-1007.953,-19410.600,0.000,0.000,-1000.000,0.000,-23507.053,-44129.564,0.000,50000.0,1.0000,3,1.0000,1.0000,19.6020,1,1,0x200265E1710,-0.470,-0.883
208.498,1788986952.743,2522.251,-1007.953,-19511.041,0.000,0.000,-1000.000,0.000,-23507.053,-44129.564,0.000,50000.0,1.0000,3,1.0000,1.0000,19.7021,1,1,0x200265E1710,-0.470,-0.883
208.629,1788986952.875,2522.251,-1007.953,-19641.706,0.000,0.000,-1000.000,0.000,-23507.053,-44129.564,0.000,50000.0,1.0000,3,1.0000,1.0000,19.8324,1,1,0x200265E1710,-0.470,-0.883
208.732,1788986952.978,2522.251,-1007.953,-19747.412,0.000,0.000,-1000.000,0.000,-23507.053,-44129.564,0.000,50000.0,1.0000,3,1.0000,1.0000,19.9388,1,1,0x200265E1710,-0.470,-0.883
208.836,1788986953.082,2522.251,-1007.953,-19849.075,0.000,0.000,-1000.000,0.000,-23507.053,-44129.564,0.000,50000.0,1.0000,3,1.0000,1.0000,20.0433,1,1,0x200265E1710,-0.470,-0.883
208.946,1788986953.192,2522.251,-1007.953,-19962.028,0.000,0.000,-1000.000,0.000,-23507.053,-44129.564,0.000,50000.0,1.0000,3,1.0000,1.0000,20.1518,1,1,0x200265E1710,-0.470,-0.883
209.063,1788986953.309,2522.251,-1007.953,-20079.182,0.000,0.000,-1000.000,0.000,-23507.053,-44129.564,0.000,50000.0,1.0000,3,1.0000,1.0000,20.2686,1,1,0x200265E1710,-0.470,-0.883
209.166,1788986953.413,2522.251,-1007.953,-20182.297,0.000,0.000,-1000.000,0.000,-23507.053,-44129.564,0.000,50000.0,1.0000,3,1.0000,1.0000,20.3714,1,1,0x200265E1710,-0.470,-0.883
209.269,1788986953.515,2522.251,-1007.953,-20286.809,0.000,0.000,-1000.000,0.000,-23507.053,-44129.564,0.000,50000.0,1.0000,3,1.0000,1.0000,20.4756,1,1,0x200265E1710,-0.470,-0.883
209.373,1788986953.618,2522.251,-1007.953,-20391.409,0.000,0.000,-1000.000,0.000,-23507.053,-44129.564,0.000,50000.0,1.0000,3,1.0000,1.0000,20.5757,1,1,0x200265E1710,-0.470,-0.883
209.476,1788986953.721,2522.251,-1007.953,-20491.947,0.000,0.000,-1000.000,0.000,-43262.067,25067.780,0.000,50000.0,1.0000,3,1.0000,1.0000,20.6801,1,1,0x200265E1710,-0.865,0.501
209.579,1788986953.823,2522.251,-1007.953,-20596.674,0.000,0.000,-1000.000,0.000,-43262.067,25067.780,0.000,50000.0,1.0000,3,1.0000,1.0000,20.7845,1,1,0x200265E1710,-0.865,0.501
209.695,1788986953.941,2522.251,-1007.953,-20713.961,0.000,0.000,-1000.000,0.000,-43262.067,25067.780,0.000,50000.0,1.0000,3,1.0000,1.0000,20.9015,1,1,0x200265E1710,-0.865,0.501
209.813,1788986954.059,2522.251,-1007.953,-20831.029,0.000,0.000,-1000.000,0.000,-43262.067,25067.780,0.000,50000.0,1.0000,3,1.0000,1.0000,21.0182,1,1,0x200265E1710,-0.865,0.501
209.916,1788986954.162,2522.251,-1007.953,-20935.641,0.000,0.000,-1000.000,0.000,-43262.067,25067.780,0.000,50000.0,1.0000,3,1.0000,1.0000,21.1225,1,1,0x200265E1710,-0.865,0.501
210.019,1788986954.265,2522.251,-1007.953,-21036.118,0.000,0.000,-1000.000,0.000,-43262.067,25067.780,0.000,50000.0,1.0000,3,1.0000,1.0000,21.2227,1,1,0x200265E1710,-0.865,0.501
210.121,1788986954.368,2522.251,-1007.953,-21142.003,0.000,0.000,-1000.000,0.000,-43262.067,25067.780,0.000,50000.0,1.0000,3,1.0000,1.0000,21.3241,1,1,0x200265E1710,-0.865,0.501
210.255,1788986954.501,2522.251,-1007.953,-21273.071,0.000,0.000,-1000.000,0.000,-43262.067,25067.780,0.000,50000.0,1.0000,3,1.0000,1.0000,21.4605,1,1,0x200265E1710,-0.865,0.501
210.362,1788986954.608,2522.251,-1007.953,-21381.247,0.000,0.000,-1000.000,0.000,-43262.067,25067.780,0.000,50000.0,1.0000,3,1.0000,1.0000,21.5666,1,1,0x200265E1710,-0.865,0.501
210.464,1788986954.710,2522.251,-1007.953,-21483.689,0.000,0.000,-1000.000,0.000,-43262.067,25067.780,0.000,50000.0,1.0000,3,1.0000,1.0000,21.6687,1,1,0x200265E1710,-0.865,0.501
210.568,1788986954.814,2522.251,-1007.953,-21588.641,0.000,0.000,-1000.000,0.000,-43262.067,25067.780,0.000,50000.0,1.0000,3,1.0000,1.0000,21.7733,1,1,0x200265E1710,-0.865,0.501
210.671,1788986954.917,2522.251,-1007.953,-21693.284,0.000,0.000,-1000.000,0.000,-43262.067,25067.780,0.000,50000.0,1.0000,3,1.0000,1.0000,21.8777,1,1,0x200265E1710,-0.865,0.501
210.796,1788986955.041,2522.251,-1007.953,-21815.098,0.000,0.000,-1000.000,0.000,-43262.067,25067.780,0.000,50000.0,1.0000,3,1.0000,1.0000,21.9991,1,1,0x200265E1710,-0.865,0.501
210.898,1788986955.145,2522.251,-1007.953,-21919.827,0.000,0.000,-1000.000,0.000,-43262.067,25067.780,0.000,50000.0,1.0000,3,1.0000,1.0000,22.1042,1,1,0x200265E1710,-0.865,0.501
211.001,1788986955.248,2522.251,-1007.953,-22025.209,0.000,0.000,-1000.000,0.000,-43262.067,25067.780,0.000,50000.0,1.0000,3,1.0000,1.0000,22.2086,1,1,0x200265E1710,-0.865,0.501
211.105,1788986955.351,2522.251,-1007.953,-22129.159,0.000,0.000,-1000.000,0.000,-43262.067,25067.780,0.000,50000.0,1.0000,3,1.0000,1.0000,22.3080,1,1,0x200265E1710,-0.865,0.501
211.221,1788986955.467,2522.251,-1007.953,-22242.092,0.000,0.000,-1000.000,0.000,-43262.067,25067.780,0.000,50000.0,1.0000,3,1.0000,1.0000,22.4258,1,1,0x200265E1710,-0.865,0.501
211.337,1788986955.583,2522.251,-1007.953,-22359.163,0.000,0.000,-1000.000,0.000,-43262.067,25067.780,0.000,50000.0,1.0000,3,1.0000,1.0000,22.5414,1,1,0x200265E1710,-0.865,0.501
211.440,1788986955.687,2522.251,-1007.953,-22461.374,0.000,0.000,-1000.000,0.000,-43262.067,25067.780,0.000,50000.0,1.0000,3,1.0000,1.0000,22.6446,1,1,0x200265E1710,-0.865,0.501
211.544,1788986955.790,2522.251,-1007.953,-22569.271,0.000,0.000,-1000.000,0.000,49121.104,-9333.656,0.000,50000.0,1.0000,3,1.0000,1.0000,22.7509,1,1,0x200265E1710,0.982,-0.187
211.653,1788986955.900,2522.251,-1007.953,-22678.364,0.000,0.000,-1000.000,0.000,49121.104,-9333.656,0.000,50000.0,1.0000,3,1.0000,1.0000,22.8597,1,1,0x200265E1710,0.982,-0.187
211.771,1788986956.016,2522.251,-1007.953,-22796.943,0.000,0.000,-1000.000,0.000,49121.104,-9333.656,0.000,50000.0,1.0000,3,1.0000,1.0000,22.9737,1,1,0x200265E1710,0.982,-0.187
211.874,1788986956.120,2522.251,-1007.953,-22897.318,0.000,0.000,-1000.000,0.000,49121.104,-9333.656,0.000,50000.0,1.0000,3,1.0000,1.0000,23.0780,1,1,0x200265E1710,0.982,-0.187
211.978,1788986956.224,2522.251,-1007.953,-23001.976,0.000,0.000,-1000.000,0.000,49121.104,-9333.656,0.000,50000.0,1.0000,3,1.0000,1.0000,23.1823,1,1,0x200265E1710,0.982,-0.187
212.095,1788986956.341,2522.251,-1007.953,-23119.263,0.000,0.000,-1000.000,0.000,49121.104,-9333.656,0.000,50000.0,1.0000,3,1.0000,1.0000,23.2993,1,1,0x200265E1710,0.982,-0.187
212.198,1788986956.445,2522.251,-1007.953,-23221.540,0.000,0.000,-1000.000,0.000,49121.104,-9333.656,0.000,50000.0,1.0000,3,1.0000,1.0000,23.3970,1,1,0x200265E1710,0.982,-0.187
212.303,1788986956.549,2522.251,-1007.953,-23328.485,0.000,0.000,-1000.000,0.000,49121.104,-9333.656,0.000,50000.0,1.0000,3,1.0000,1.0000,23.5077,1,1,0x200265E1710,0.982,-0.187
212.406,1788986956.652,2522.251,-1007.953,-23431.923,0.000,0.000,-1000.000,0.000,49121.104,-9333.656,0.000,50000.0,1.0000,3,1.0000,1.0000,23.6108,1,1,0x200265E1710,0.982,-0.187
212.509,1788986956.755,2522.251,-1007.953,-23536.066,0.000,0.000,-1000.000,0.000,49121.104,-9333.656,0.000,50000.0,1.0000,3,1.0000,1.0000,23.7147,1,1,0x200265E1710,0.982,-0.187
212.620,1788986956.866,2522.251,-1007.953,-23649.471,0.000,0.000,-1000.000,0.000,49121.104,-9333.656,0.000,50000.0,1.0000,3,1.0000,1.0000,23.8236,1,1,0x200265E1710,0.982,-0.187
212.745,1788986956.991,2522.251,-1007.953,-23770.792,0.000,0.000,-1000.000,0.000,49121.104,-9333.656,0.000,50000.0,1.0000,3,1.0000,1.0000,23.9487,1,1,0x200265E1710,0.982,-0.187
212.880,1788986957.126,2522.251,-1007.953,-23908.941,0.000,0.000,-1000.000,0.000,49121.104,-9333.656,0.000,50000.0,1.0000,3,1.0000,1.0000,24.0865,1,1,0x200265E1710,0.982,-0.187
212.983,1788986957.228,2522.251,-1007.953,-24010.467,0.000,0.000,-1000.000,0.000,49121.104,-9333.656,0.000,50000.0,1.0000,3,1.0000,1.0000,24.1877,1,1,0x200265E1710,0.982,-0.187
213.103,1788986957.349,2522.251,-1007.953,-24131.929,0.000,0.000,-1000.000,0.000,49121.104,-9333.656,0.000,50000.0,1.0000,3,1.0000,1.0000,24.3089,1,1,0x200265E1710,0.982,-0.187
213.212,1788986957.458,2522.251,-1007.953,-24238.765,0.000,0.000,-1000.000,0.000,49121.104,-9333.656,0.000,50000.0,1.0000,3,1.0000,1.0000,24.4165,1,1,0x200265E1710,0.982,-0.187
213.315,1788986957.562,2522.251,-1007.953,-24346.464,0.000,0.000,-1000.000,0.000,49121.104,-9333.656,0.000,50000.0,1.0000,3,1.0000,1.0000,24.5185,1,1,0x200265E1710,0.982,-0.187
213.419,1788986957.666,2522.251,-1007.953,-24450.791,0.000,0.000,-1000.000,0.000,49121.104,-9333.656,0.000,50000.0,1.0000,3,1.0000,1.0000,24.6225,1,1,0x200265E1710,0.982,-0.187
213.537,1788986957.782,2522.251,-1007.953,-24565.958,0.000,0.000,-1000.000,0.000,-49116.625,9357.199,0.000,50000.0,1.0000,3,1.0000,1.0000,24.7417,1,1,0x200265E1710,-0.982,0.187
213.645,1788986957.891,2522.251,-1007.953,-24674.958,0.000,0.000,-1000.000,0.000,-49116.625,9357.199,0.000,50000.0,1.0000,3,1.0000,1.0000,24.8501,1,1,0x200265E1710,-0.982,0.187
213.753,1788986957.998,2522.251,-1007.953,-24783.340,0.000,0.000,-1000.000,0.000,-49116.625,9357.199,0.000,50000.0,1.0000,3,1.0000,1.0000,24.9540,1,1,0x200265E1710,-0.982,0.187
213.855,1788986958.101,2522.251,-1007.953,-24885.711,0.000,0.000,-1000.000,0.000,-49116.625,9357.199,0.000,50000.0,1.0000,3,1.0000,1.0000,25.0602,1,1,0x200265E1710,-0.982,0.187
213.959,1788986958.204,2522.251,-1007.953,-24990.554,0.000,0.000,-1000.000,0.000,-49116.625,9357.199,0.000,50000.0,1.0000,3,1.0000,1.0000,25.1648,1,1,0x200265E1710,-0.982,0.187
214.062,1788986958.308,2522.251,-1007.953,-25095.279,0.000,0.000,-1000.000,0.000,-49116.625,9357.199,0.000,50000.0,1.0000,3,1.0000,1.0000,25.2650,1,1,0x200265E1710,-0.982,0.187
214.177,1788986958.424,2522.251,-1007.953,-25207.409,0.000,0.000,-1000.000,0.000,-49116.625,9357.199,0.000,50000.0,1.0000,3,1.0000,1.0000,25.3810,1,1,0x200265E1710,-0.982,0.187
214.281,1788986958.527,2522.251,-1007.953,-25315.470,0.000,0.000,-1000.000,0.000,-49116.625,9357.199,0.000,50000.0,1.0000,3,1.0000,1.0000,25.4845,1,1,0x200265E1710,-0.982,0.187
214.385,1788986958.630,2522.251,-1007.953,-25416.917,0.000,0.000,-1000.000,0.000,-49116.625,9357.199,0.000,50000.0,1.0000,3,1.0000,1.0000,25.5903,1,1,0x200265E1710,-0.982,0.187
214.487,1788986958.733,2522.251,-1007.953,-25521.709,0.000,0.000,-1000.000,0.000,-49116.625,9357.199,0.000,50000.0,1.0000,3,1.0000,1.0000,25.6942,1,1,0x200265E1710,-0.982,0.187
214.590,1788986958.836,2522.251,-1007.953,-25622.125,0.000,0.000,-1000.000,0.000,-49116.625,9357.199,0.000,50000.0,1.0000,3,1.0000,1.0000,25.7943,1,1,0x200265E1710,-0.982,0.187
214.703,1788986958.949,2522.251,-1007.953,-25736.663,0.000,0.000,-1000.000,0.000,-49116.625,9357.199,0.000,50000.0,1.0000,3,1.0000,1.0000,25.9085,1,1,0x200265E1710,-0.982,0.187
214.806,1788986959.052,2522.251,-1007.953,-25839.041,0.000,0.000,-1000.000,0.000,-49116.625,9357.199,0.000,50000.0,1.0000,3,1.0000,1.0000,26.0105,1,1,0x200265E1710,-0.982,0.187
214.954,1788986959.200,2522.251,-1007.953,-25989.742,0.000,0.000,-1000.000,0.000,-49116.625,9357.199,0.000,50000.0,1.0000,3,1.0000,1.0000,26.1609,1,1,0x200265E1710,-0.982,0.187
215.057,1788986959.303,2522.251,-1007.953,-26094.467,0.000,0.000,-1000.000,0.000,-49116.625,9357.199,0.000,50000.0,1.0000,3,1.0000,1.0000,26.2610,1,1,0x200265E1710,-0.982,0.187
215.169,1788986959.415,2522.251,-1007.953,-26203.726,0.000,0.000,-1000.000,0.000,-49116.625,9357.199,0.000,50000.0,1.0000,3,1.0000,1.0000,26.3741,1,1,0x200265E1710,-0.982,0.187
215.277,1788986959.523,2522.251,-1007.953,-26312.489,0.000,0.000,-1000.000,0.000,-49116.625,9357.199,0.000,50000.0,1.0000,3,1.0000,1.0000,26.4826,1,1,0x200265E1710,-0.982,0.187
215.379,1788986959.626,2522.251,-1007.953,-26417.310,0.000,0.000,-1000.000,0.000,-49116.625,9357.199,0.000,50000.0,1.0000,3,1.0000,1.0000,26.5871,1,1,0x200265E1710,-0.982,0.187
215.483,1788986959.729,2522.251,-1007.953,-26517.978,0.000,0.000,-1000.000,0.000,-39547.589,30593.925,0.000,50000.0,1.0000,3,1.0000,1.0000,26.6874,1,1,0x200265E1710,-0.791,0.612
215.594,1788986959.840,2522.251,-1007.953,-26632.286,0.000,0.000,-1000.000,0.000,-39547.589,30593.925,0.000,50000.0,1.0000,3,1.0000,1.0000,26.8015,1,1,0x200265E1710,-0.791,0.612
215.697,1788986959.944,2522.251,-1007.953,-26734.407,0.000,0.000,-1000.000,0.000,-39547.589,30593.925,0.000,50000.0,1.0000,3,1.0000,1.0000,26.9037,1,1,0x200265E1710,-0.791,0.612
215.869,1788986960.115,2522.251,-1007.953,-26907.303,0.000,0.000,-1000.000,0.000,-39547.589,30593.925,0.000,50000.0,1.0000,3,1.0000,1.0000,27.0756,1,1,0x200265E1710,-0.791,0.612
215.977,1788986960.223,2522.251,-1007.953,-27016.431,0.000,0.000,-1000.000,0.000,-39547.589,30593.925,0.000,50000.0,1.0000,3,1.0000,1.0000,27.1844,1,1,0x200265E1710,-0.791,0.612
216.093,1788986960.339,2522.251,-1007.953,-27129.843,0.000,0.000,-1000.000,0.000,-39547.589,30593.925,0.000,50000.0,1.0000,3,1.0000,1.0000,27.2975,1,1,0x200265E1710,-0.791,0.612
216.196,1788986960.443,2522.251,-1007.953,-27235.702,0.000,0.000,-1000.000,0.000,-39547.589,30593.925,0.000,50000.0,1.0000,3,1.0000,1.0000,27.4030,1,1,0x200265E1710,-0.791,0.612
216.319,1788986960.564,2522.251,-1007.953,-27359.011,0.000,0.000,-1000.000,0.000,-39547.589,30593.925,0.000,50000.0,1.0000,3,1.0000,1.0000,27.5259,1,1,0x200265E1710,-0.791,0.612
216.435,1788986960.681,2522.251,-1007.953,-27476.776,0.000,0.000,-1000.000,0.000,-39547.589,30593.925,0.000,50000.0,1.0000,3,1.0000,1.0000,27.6434,1,1,0x200265E1710,-0.791,0.612
216.543,1788986960.789,2522.251,-1007.953,-27581.792,0.000,0.000,-1000.000,0.000,-39547.589,30593.925,0.000,50000.0,1.0000,3,1.0000,1.0000,27.7481,1,1,0x200265E1710,-0.791,0.612
216.647,1788986960.893,2522.251,-1007.953,-27686.336,0.000,0.000,-1000.000,0.000,-39547.589,30593.925,0.000,50000.0,1.0000,3,1.0000,1.0000,27.8527,1,1,0x200265E1710,-0.791,0.612
216.769,1788986961.015,2522.251,-1007.953,-27810.633,0.000,0.000,-1000.000,0.000,-39547.589,30593.925,0.000,50000.0,1.0000,3,1.0000,1.0000,27.9762,1,1,0x200265E1710,-0.791,0.612
216.872,1788986961.118,2522.251,-1007.953,-27912.060,0.000,0.000,-1000.000,0.000,-39547.589,30593.925,0.000,50000.0,1.0000,3,1.0000,1.0000,28.0772,1,1,0x200265E1710,-0.791,0.612
216.975,1788986961.221,2522.251,-1007.953,-28013.291,0.000,0.000,-1000.000,0.000,-39547.589,30593.925,0.000,50000.0,1.0000,3,1.0000,1.0000,28.1808,1,1,0x200265E1710,-0.791,0.612
217.079,1788986961.325,2522.251,-1007.953,-28118.600,0.000,0.000,-1000.000,0.000,-39547.589,30593.925,0.000,50000.0,1.0000,3,1.0000,1.0000,28.2838,1,1,0x200265E1710,-0.791,0.612
217.182,1788986961.428,2522.251,-1007.953,-28224.792,0.000,0.000,-1000.000,0.000,-39547.589,30593.925,0.000,50000.0,1.0000,3,1.0000,1.0000,28.3889,1,1,0x200265E1710,-0.791,0.612
217.351,1788986961.597,2522.251,-1007.953,-28391.983,0.000,0.000,-1000.000,0.000,-39547.589,30593.925,0.000,50000.0,1.0000,3,1.0000,1.0000,28.5556,1,1,0x200265E1710,-0.791,0.612
217.454,1788986961.700,2522.251,-1007.953,-28496.847,0.000,0.000,-1000.000,0.000,-39547.589,30593.925,0.000,50000.0,1.0000,3,1.0000,1.0000,28.6601,1,1,0x200265E1710,-0.791,0.612
217.557,1788986961.802,2522.251,-1007.953,-28601.923,0.000,0.000,-1000.000,0.000,-44327.432,-23131.769,0.000,50000.0,1.0000,3,1.0000,1.0000,28.7607,1,1,0x200265E1710,-0.887,-0.463
217.668,1788986961.914,2522.251,-1007.953,-28706.445,0.000,0.000,-1000.000,0.000,-44327.432,-23131.769,0.000,50000.0,1.0000,3,1.0000,1.0000,28.8699,1,1,0x200265E1710,-0.887,-0.463
217.785,1788986962.032,2522.251,-1007.953,-28826.055,0.000,0.000,-1000.000,0.000,-44327.432,-23131.769,0.000,50000.0,1.0000,3,1.0000,1.0000,28.9839,1,1,0x200265E1710,-0.887,-0.463
217.889,1788986962.134,2522.251,-1007.953,-28928.546,0.000,0.000,-1000.000,0.000,-44327.432,-23131.769,0.000,50000.0,1.0000,3,1.0000,1.0000,29.0855,1,1,0x200265E1710,-0.887,-0.463
217.991,1788986962.236,2522.251,-1007.953,-29037.758,0.000,0.000,-1000.000,0.000,-44327.432,-23131.769,0.000,50000.0,1.0000,3,1.0000,1.0000,29.1943,1,1,0x200265E1710,-0.887,-0.463
218.118,1788986962.364,2522.251,-1007.953,-29161.041,0.000,0.000,-1000.000,0.000,-44327.432,-23131.769,0.000,50000.0,1.0000,3,1.0000,1.0000,29.3248,1,1,0x200265E1710,-0.887,-0.463
218.242,1788986962.488,2522.251,-1007.953,-29289.668,0.000,0.000,-1000.000,0.000,-44327.432,-23131.769,0.000,50000.0,1.0000,3,1.0000,1.0000,29.4495,1,1,0x200265E1710,-0.887,-0.463
218.345,1788986962.591,2522.251,-1007.953,-29392.845,0.000,0.000,-1000.000,0.000,-44327.432,-23131.769,0.000,50000.0,1.0000,3,1.0000,1.0000,29.5526,1,1,0x200265E1710,-0.887,-0.463
218.460,1788986962.706,2522.251,-1007.953,-29508.221,0.000,0.000,-1000.000,0.000,-44327.432,-23131.769,0.000,50000.0,1.0000,3,1.0000,1.0000,29.6675,1,1,0x200265E1710,-0.887,-0.463
218.567,1788986962.813,2522.251,-1007.953,-29613.601,0.000,0.000,-1000.000,0.000,-44327.432,-23131.769,0.000,50000.0,1.0000,3,1.0000,1.0000,29.7725,1,1,0x200265E1710,-0.887,-0.463
218.676,1788986962.921,2522.251,-1007.953,-29724.253,0.000,0.000,-1000.000,0.000,-44327.432,-23131.769,0.000,50000.0,1.0000,3,1.0000,1.0000,29.8828,1,1,0x200265E1710,-0.887,-0.463
218.784,1788986963.030,2522.251,-1007.953,-29832.215,0.000,0.000,-1000.000,0.000,-44327.432,-23131.769,0.000,50000.0,1.0000,3,1.0000,1.0000,29.9904,1,1,0x200265E1710,-0.887,-0.463
218.892,1788986963.139,2522.251,-1007.953,-29941.314,0.000,0.000,-1000.000,0.000,-44327.432,-23131.769,0.000,50000.0,1.0000,3,1.0000,1.0000,30.0992,1,1,0x200265E1710,-0.887,-0.463
219.001,1788986963.247,2522.251,-1007.953,-30050.004,0.000,0.000,-1000.000,0.000,-44327.432,-23131.769,0.000,50000.0,1.0000,3,1.0000,1.0000,30.2075,1,1,0x200265E1710,-0.887,-0.463
219.109,1788986963.354,2522.251,-1007.953,-30159.524,0.000,0.000,-1000.000,0.000,-44327.432,-23131.769,0.000,50000.0,1.0000,3,1.0000,1.0000,30.3126,1,1,0x200265E1710,-0.887,-0.463
219.217,1788986963.463,2522.251,-1007.953,-30268.892,0.000,0.000,-1000.000,0.000,-44327.432,-23131.769,0.000,50000.0,1.0000,3,1.0000,1.0000,30.4216,1,1,0x200265E1710,-0.887,-0.463
219.326,1788986963.571,2522.251,-1007.953,-30373.687,0.000,0.000,-1000.000,0.000,-44327.432,-23131.769,0.000,50000.0,1.0000,3,1.0000,1.0000,30.5303,1,1,0x200265E1710,-0.887,-0.463
219.435,1788986963.681,2522.251,-1007.953,-30486.605,0.000,0.000,-1000.000,0.000,-44327.432,-23131.769,0.000,50000.0,1.0000,3,1.0000,1.0000,30.6387,1,1,0x200265E1710,-0.887,-0.463
219.542,1788986963.788,2522.251,-1007.953,-30593.371,0.000,0.000,-1000.000,0.000,7862.679,-49377.913,0.000,50000.0,1.0000,3,1.0000,1.0000,30.7493,1,1,0x200265E1710,0.157,-0.988
219.650,1788986963.897,2522.251,-1007.953,-30702.241,0.000,0.000,-1000.000,0.000,7862.679,-49377.913,0.000,50000.0,1.0000,3,1.0000,1.0000,30.8578,1,1,0x200265E1710,0.157,-0.988
219.759,1788986964.004,2522.251,-1007.953,-30811.969,0.000,0.000,-1000.000,0.000,7862.679,-49377.913,0.000,50000.0,1.0000,3,1.0000,1.0000,30.9631,1,1,0x200265E1710,0.157,-0.988
219.867,1788986964.113,2522.251,-1007.953,-30916.461,0.000,0.000,-1000.000,0.000,7862.679,-49377.913,0.000,50000.0,1.0000,3,1.0000,1.0000,31.0714,1,1,0x200265E1710,0.157,-0.988
219.975,1788986964.221,2522.251,-1007.953,-31026.240,0.000,0.000,-1000.000,0.000,7862.679,-49377.913,0.000,50000.0,1.0000,3,1.0000,1.0000,31.1809,1,1,0x200265E1710,0.157,-0.988
220.085,1788986964.331,2522.251,-1007.953,-31136.267,0.000,0.000,-1000.000,0.000,7862.679,-49377.913,0.000,50000.0,1.0000,3,1.0000,1.0000,31.2906,1,1,0x200265E1710,0.157,-0.988
220.192,1788986964.439,2522.251,-1007.953,-31243.416,0.000,0.000,-1000.000,0.000,7862.679,-49377.913,0.000,50000.0,1.0000,3,1.0000,1.0000,31.3974,1,1,0x200265E1710,0.157,-0.988
220.300,1788986964.547,2522.251,-1007.953,-31355.159,0.000,0.000,-1000.000,0.000,7862.679,-49377.913,0.000,50000.0,1.0000,3,1.0000,1.0000,31.5046,1,1,0x200265E1710,0.157,-0.988
220.408,1788986964.654,2522.251,-1007.953,-31462.714,0.000,0.000,-1000.000,0.000,7862.679,-49377.913,0.000,50000.0,1.0000,3,1.0000,1.0000,31.6159,1,1,0x200265E1710,0.157,-0.988
220.517,1788986964.763,2522.251,-1007.953,-31569.152,0.000,0.000,-1000.000,0.000,7862.679,-49377.913,0.000,50000.0,1.0000,3,1.0000,1.0000,31.7220,1,1,0x200265E1710,0.157,-0.988
220.667,1788986964.914,2522.251,-1007.953,-31720.138,0.000,0.000,-1000.000,0.000,7862.679,-49377.913,0.000,50000.0,1.0000,3,1.0000,1.0000,31.8739,1,1,0x200265E1710,0.157,-0.988
220.775,1788986965.021,2522.251,-1007.953,-31828.554,0.000,0.000,-1000.000,0.000,7862.679,-49377.913,0.000,50000.0,1.0000,3,1.0000,1.0000,31.9806,1,1,0x200265E1710,0.157,-0.988
220.878,1788986965.124,2522.251,-1007.953,-31930.647,0.000,0.000,-1000.000,0.000,7862.679,-49377.913,0.000,50000.0,1.0000,3,1.0000,1.0000,32.0853,1,1,0x200265E1710,0.157,-0.988
220.982,1788986965.227,2522.251,-1007.953,-32037.633,0.000,0.000,-1000.000,0.000,7862.679,-49377.913,0.000,50000.0,1.0000,3,1.0000,1.0000,32.1892,1,1,0x200265E1710,0.157,-0.988
221.085,1788986965.330,2522.251,-1007.953,-32137.709,0.000,0.000,-1000.000,0.000,7862.679,-49377.913,0.000,50000.0,1.0000,3,1.0000,1.0000,32.2899,1,1,0x200265E1710,0.157,-0.988
221.191,1788986965.437,2522.251,-1007.953,-32248.630,0.000,0.000,-1000.000,0.000,7862.679,-49377.913,0.000,50000.0,1.0000,3,1.0000,1.0000,32.3951,1,1,0x200265E1710,0.157,-0.988
221.308,1788986965.554,2522.251,-1007.953,-32363.966,0.000,0.000,-1000.000,0.000,7862.679,-49377.913,0.000,50000.0,1.0000,3,1.0000,1.0000,32.5142,1,1,0x200265E1710,0.157,-0.988
221.410,1788986965.657,2522.251,-1007.953,-32468.496,0.000,0.000,-1000.000,0.000,7862.679,-49377.913,0.000,50000.0,1.0000,3,1.0000,1.0000,32.6184,1,1,0x200265E1710,0.157,-0.988
221.525,1788986965.771,2522.251,-1007.953,-32582.156,0.000,0.000,-1000.000,0.000,36773.548,-33877.812,0.000,50000.0,1.0000,3,1.0000,1.0000,32.7316,1,1,0x200265E1710,0.735,-0.678
221.641,1788986965.887,2522.251,-1007.953,-32700.280,0.000,0.000,-1000.000,0.000,36773.548,-33877.812,0.000,50000.0,1.0000,3,1.0000,1.0000,32.8494,1,1,0x200265E1710,0.735,-0.678
221.744,1788986965.991,2522.251,-1007.953,-32800.632,0.000,0.000,-1000.000,0.000,36773.548,-33877.812,0.000,50000.0,1.0000,3,1.0000,1.0000,32.9494,1,1,0x200265E1710,0.735,-0.678
221.858,1788986966.104,2522.251,-1007.953,-32917.957,0.000,0.000,-1000.000,0.000,36773.548,-33877.812,0.000,50000.0,1.0000,3,1.0000,1.0000,33.0663,1,1,0x200265E1710,0.735,-0.678
221.962,1788986966.207,2522.251,-1007.953,-33019.107,0.000,0.000,-1000.000,0.000,36773.548,-33877.812,0.000,50000.0,1.0000,3,1.0000,1.0000,33.1671,1,1,0x200265E1710,0.735,-0.678
222.065,1788986966.310,2522.251,-1007.953,-33124.880,0.000,0.000,-1000.000,0.000,36773.548,-33877.812,0.000,50000.0,1.0000,3,1.0000,1.0000,33.2684,1,1,0x200265E1710,0.735,-0.678
222.191,1788986966.438,2522.251,-1007.953,-33249.898,0.000,0.000,-1000.000,0.000,36773.548,-33877.812,0.000,50000.0,1.0000,3,1.0000,1.0000,33.3972,1,1,0x200265E1710,0.735,-0.678
222.295,1788986966.541,2522.251,-1007.953,-33352.479,0.000,0.000,-1000.000,0.000,36773.548,-33877.812,0.000,50000.0,1.0000,3,1.0000,1.0000,33.4994,1,1,0x200265E1710,0.735,-0.678
222.409,1788986966.655,2522.251,-1007.953,-33469.238,0.000,0.000,-1000.000,0.000,36773.548,-33877.812,0.000,50000.0,1.0000,3,1.0000,1.0000,33.6158,1,1,0x200265E1710,0.735,-0.678
222.524,1788986966.769,2522.251,-1007.953,-33582.597,0.000,0.000,-1000.000,0.000,36773.548,-33877.812,0.000,50000.0,1.0000,3,1.0000,1.0000,33.7287,1,1,0x200265E1710,0.735,-0.678
222.641,1788986966.887,2522.251,-1007.953,-33699.859,0.000,0.000,-1000.000,0.000,36773.548,-33877.812,0.000,50000.0,1.0000,3,1.0000,1.0000,33.8456,1,1,0x200265E1710,0.735,-0.678
222.744,1788986966.990,2522.251,-1007.953,-33804.696,0.000,0.000,-1000.000,0.000,36773.548,-33877.812,0.000,50000.0,1.0000,3,1.0000,1.0000,33.9501,1,1,0x200265E1710,0.735,-0.678
222.866,1788986967.112,2522.251,-1007.953,-33926.584,0.000,0.000,-1000.000,0.000,36773.548,-33877.812,0.000,50000.0,1.0000,3,1.0000,1.0000,34.0716,1,1,0x200265E1710,0.735,-0.678
222.969,1788986967.214,2522.251,-1007.953,-34031.306,0.000,0.000,-1000.000,0.000,36773.548,-33877.812,0.000,50000.0,1.0000,3,1.0000,1.0000,34.1718,1,1,0x200265E1710,0.735,-0.678
223.071,1788986967.317,2522.251,-1007.953,-34131.785,0.000,0.000,-1000.000,0.000,36773.548,-33877.812,0.000,50000.0,1.0000,3,1.0000,1.0000,34.2761,1,1,0x200265E1710,0.735,-0.678
223.175,1788986967.420,2522.251,-1007.953,-34236.324,0.000,0.000,-1000.000,0.000,36773.548,-33877.812,0.000,50000.0,1.0000,3,1.0000,1.0000,34.3803,1,1,0x200265E1710,0.735,-0.678
223.277,1788986967.523,2522.251,-1007.953,-34341.226,0.000,0.000,-1000.000,0.000,36773.548,-33877.812,0.000,50000.0,1.0000,3,1.0000,1.0000,34.4807,1,1,0x200265E1710,0.735,-0.678
223.380,1788986967.626,2522.251,-1007.953,-34440.974,0.000,0.000,-1000.000,0.000,36773.548,-33877.812,0.000,50000.0,1.0000,3,1.0000,1.0000,34.5853,1,1,0x200265E1710,0.735,-0.678
223.499,1788986967.745,2522.251,-1007.953,-34560.392,0.000,0.000,-1000.000,0.000,9514.913,-49086.316,0.000,50000.0,1.0000,3,1.0000,1.0000,34.7033,1,1,0x200265E1710,0.190,-0.982
223.616,1788986967.862,2522.251,-1007.953,-34680.050,0.000,0.000,-1000.000,0.000,9514.913,-49086.316,0.000,50000.0,1.0000,3,1.0000,1.0000,34.8225,1,1,0x200265E1710,0.190,-0.982
223.718,1788986967.963,2522.251,-1007.953,-34780.361,0.000,0.000,-1000.000,0.000,9514.913,-49086.316,0.000,50000.0,1.0000,3,1.0000,1.0000,34.9225,1,1,0x200265E1710,0.190,-0.982
223.832,1788986968.078,2522.251,-1007.953,-34897.411,0.000,0.000,-1000.000,0.000,9514.913,-49086.316,0.000,50000.0,1.0000,3,1.0000,1.0000,35.0392,1,1,0x200265E1710,0.190,-0.982
223.941,1788986968.187,2522.251,-1007.953,-35006.483,0.000,0.000,-1000.000,0.000,9514.913,-49086.316,0.000,50000.0,1.0000,3,1.0000,1.0000,35.1479,1,1,0x200265E1710,0.190,-0.982
224.044,1788986968.289,2522.251,-1007.953,-35110.973,0.000,0.000,-1000.000,0.000,9514.913,-49086.316,0.000,50000.0,1.0000,3,1.0000,1.0000,35.2478,1,1,0x200265E1710,0.190,-0.982
224.157,1788986968.404,2522.251,-1007.953,-35224.130,0.000,0.000,-1000.000,0.000,9514.913,-49086.316,0.000,50000.0,1.0000,3,1.0000,1.0000,35.3606,1,1,0x200265E1710,0.190,-0.982
224.274,1788986968.520,2522.251,-1007.953,-35338.383,0.000,0.000,-1000.000,0.000,9514.913,-49086.316,0.000,50000.0,1.0000,3,1.0000,1.0000,35.4787,1,1,0x200265E1710,0.190,-0.982
224.378,1788986968.624,2522.251,-1007.953,-35443.134,0.000,0.000,-1000.000,0.000,9514.913,-49086.316,0.000,50000.0,1.0000,3,1.0000,1.0000,35.5831,1,1,0x200265E1710,0.190,-0.982
224.480,1788986968.726,2522.251,-1007.953,-35547.642,0.000,0.000,-1000.000,0.000,9514.913,-49086.316,0.000,50000.0,1.0000,3,1.0000,1.0000,35.6872,1,1,0x200265E1710,0.190,-0.982
224.591,1788986968.837,2522.251,-1007.953,-35658.975,0.000,0.000,-1000.000,0.000,9514.913,-49086.316,0.000,50000.0,1.0000,3,1.0000,1.0000,35.7983,1,1,0x200265E1710,0.190,-0.982
224.707,1788986968.953,2522.251,-1007.953,-35774.481,0.000,0.000,-1000.000,0.000,9514.913,-49086.316,0.000,50000.0,1.0000,3,1.0000,1.0000,35.9133,1,1,0x200265E1710,0.190,-0.982
224.810,1788986969.056,2522.251,-1007.953,-35879.679,0.000,0.000,-1000.000,0.000,9514.913,-49086.316,0.000,50000.0,1.0000,3,1.0000,1.0000,36.0140,1,1,0x200265E1710,0.190,-0.982
224.915,1788986969.161,2522.251,-1007.953,-35984.260,0.000,0.000,-1000.000,0.000,9514.913,-49086.316,0.000,50000.0,1.0000,3,1.0000,1.0000,36.1224,1,1,0x200265E1710,0.190,-0.982
225.019,1788986969.266,2522.251,-1007.953,-36085.111,0.000,0.000,-1000.000,0.000,9514.913,-49086.316,0.000,50000.0,1.0000,3,1.0000,1.0000,36.2229,1,1,0x200265E1710,0.190,-0.982
225.123,1788986969.369,2522.251,-1007.953,-36190.392,0.000,0.000,-1000.000,0.000,9514.913,-49086.316,0.000,50000.0,1.0000,3,1.0000,1.0000,36.3279,1,1,0x200265E1710,0.190,-0.982
225.232,1788986969.477,2522.251,-1007.953,-36300.705,0.000,0.000,-1000.000,0.000,9514.913,-49086.316,0.000,50000.0,1.0000,3,1.0000,1.0000,36.4382,1,1,0x200265E1710,0.190,-0.982
225.349,1788986969.595,2522.251,-1007.953,-36417.819,0.000,0.000,-1000.000,0.000,9514.913,-49086.316,0.000,50000.0,1.0000,3,1.0000,1.0000,36.5556,1,1,0x200265E1710,0.190,-0.982
225.452,1788986969.698,2522.251,-1007.953,-36521.163,0.000,0.000,-1000.000,0.000,9514.913,-49086.316,0.000,50000.0,1.0000,3,1.0000,1.0000,36.6575,1,1,0x200265E1710,0.190,-0.982
225.565,1788986969.810,2522.251,-1007.953,-36634.888,0.000,0.000,-1000.000,0.000,41859.708,27345.290,0.000,50000.0,1.0000,3,1.0000,1.0000,36.7709,1,1,0x200265E1710,0.837,0.547
225.668,1788986969.914,2522.251,-1007.953,-36736.290,0.000,0.000,-1000.000,0.000,41859.708,27345.290,0.000,50000.0,1.0000,3,1.0000,1.0000,36.8719,1,1,0x200265E1710,0.837,0.547
225.781,1788986970.027,2522.251,-1007.953,-36853.446,0.000,0.000,-1000.000,0.000,41859.708,27345.290,0.000,50000.0,1.0000,3,1.0000,1.0000,36.9845,1,1,0x200265E1710,0.837,0.547
225.884,1788986970.130,2522.251,-1007.953,-36952.869,0.000,0.000,-1000.000,0.000,41859.708,27345.290,0.000,50000.0,1.0000,3,1.0000,1.0000,37.0836,1,1,0x200265E1710,0.837,0.547
225.999,1788986970.245,2522.251,-1007.953,-37068.194,0.000,0.000,-1000.000,0.000,41859.708,27345.290,0.000,50000.0,1.0000,3,1.0000,1.0000,37.2027,1,1,0x200265E1710,0.837,0.547
226.102,1788986970.348,2522.251,-1007.953,-37174.311,0.000,0.000,-1000.000,0.000,41859.708,27345.290,0.000,50000.0,1.0000,3,1.0000,1.0000,37.3084,1,1,0x200265E1710,0.837,0.547
226.205,1788986970.452,2522.251,-1007.953,-37275.588,0.000,0.000,-1000.000,0.000,41859.708,27345.290,0.000,50000.0,1.0000,3,1.0000,1.0000,37.4094,1,1,0x200265E1710,0.837,0.547
226.309,1788986970.554,2522.251,-1007.953,-37380.388,0.000,0.000,-1000.000,0.000,41859.708,27345.290,0.000,50000.0,1.0000,3,1.0000,1.0000,37.5138,1,1,0x200265E1710,0.837,0.547
226.412,1788986970.657,2522.251,-1007.953,-37484.879,0.000,0.000,-1000.000,0.000,41859.708,27345.290,0.000,50000.0,1.0000,3,1.0000,1.0000,37.6180,1,1,0x200265E1710,0.837,0.547
226.515,1788986970.761,2522.251,-1007.953,-37586.712,0.000,0.000,-1000.000,0.000,41859.708,27345.290,0.000,50000.0,1.0000,3,1.0000,1.0000,37.7195,1,1,0x200265E1710,0.837,0.547
226.640,1788986970.886,2522.251,-1007.953,-37712.572,0.000,0.000,-1000.000,0.000,41859.708,27345.290,0.000,50000.0,1.0000,3,1.0000,1.0000,37.8449,1,1,0x200265E1710,0.837,0.547
226.744,1788986970.990,2522.251,-1007.953,-37817.617,0.000,0.000,-1000.000,0.000,41859.708,27345.290,0.000,50000.0,1.0000,3,1.0000,1.0000,37.9496,1,1,0x200265E1710,0.837,0.547
226.857,1788986971.103,2522.251,-1007.953,-37928.912,0.000,0.000,-1000.000,0.000,41859.708,27345.290,0.000,50000.0,1.0000,3,1.0000,1.0000,38.0605,1,1,0x200265E1710,0.837,0.547
226.960,1788986971.206,2522.251,-1007.953,-38033.411,0.000,0.000,-1000.000,0.000,41859.708,27345.290,0.000,50000.0,1.0000,3,1.0000,1.0000,38.1646,1,1,0x200265E1710,0.837,0.547
227.071,1788986971.316,2522.251,-1007.953,-38147.007,0.000,0.000,-1000.000,0.000,41859.708,27345.290,0.000,50000.0,1.0000,3,1.0000,1.0000,38.2737,1,1,0x200265E1710,0.837,0.547
227.173,1788986971.420,2522.251,-1007.953,-38247.334,0.000,0.000,-1000.000,0.000,41859.708,27345.290,0.000,50000.0,1.0000,3,1.0000,1.0000,38.3778,1,1,0x200265E1710,0.837,0.547
227.289,1788986971.536,2522.251,-1007.953,-38364.503,0.000,0.000,-1000.000,0.000,41859.708,27345.290,0.000,50000.0,1.0000,3,1.0000,1.0000,38.4946,1,1,0x200265E1710,0.837,0.547
227.393,1788986971.639,2522.251,-1007.953,-38469.049,0.000,0.000,-1000.000,0.000,41859.708,27345.290,0.000,50000.0,1.0000,3,1.0000,1.0000,38.5988,1,1,0x200265E1710,0.837,0.547
227.506,1788986971.751,2522.251,-1007.953,-38582.466,0.000,0.000,-1000.000,0.000,-1557.737,-49975.729,0.000,50000.0,1.0000,3,1.0000,1.0000,38.7119,1,1,0x200265E1710,-0.031,-1.000
227.623,1788986971.869,2522.251,-1007.953,-38699.721,0.000,0.000,-1000.000,0.000,-1557.737,-49975.729,0.000,50000.0,1.0000,3,1.0000,1.0000,38.8287,1,1,0x200265E1710,-0.031,-1.000
227.726,1788986971.972,2522.251,-1007.953,-38801.170,0.000,0.000,-1000.000,0.000,-1557.737,-49975.729,0.000,50000.0,1.0000,3,1.0000,1.0000,38.9298,1,1,0x200265E1710,-0.031,-1.000
227.829,1788986972.075,2522.251,-1007.953,-38902.579,0.000,0.000,-1000.000,0.000,-1557.737,-49975.729,0.000,50000.0,1.0000,3,1.0000,1.0000,39.0319,1,1,0x200265E1710,-0.031,-1.000
227.932,1788986972.179,2522.251,-1007.953,-39010.398,0.000,0.000,-1000.000,0.000,-1557.737,-49975.729,0.000,50000.0,1.0000,3,1.0000,1.0000,39.1385,1,1,0x200265E1710,-0.031,-1.000
228.048,1788986972.294,2522.251,-1007.953,-39125.190,0.000,0.000,-1000.000,0.000,-1557.737,-49975.729,0.000,50000.0,1.0000,3,1.0000,1.0000,39.2528,1,1,0x200265E1710,-0.031,-1.000
228.151,1788986972.397,2522.251,-1007.953,-39229.945,0.000,0.000,-1000.000,0.000,-1557.737,-49975.729,0.000,50000.0,1.0000,3,1.0000,1.0000,39.3572,1,1,0x200265E1710,-0.031,-1.000
228.254,1788986972.501,2522.251,-1007.953,-39331.648,0.000,0.000,-1000.000,0.000,-1557.737,-49975.729,0.000,50000.0,1.0000,3,1.0000,1.0000,39.4586,1,1,0x200265E1710,-0.031,-1.000
228.358,1788986972.604,2522.251,-1007.953,-39436.629,0.000,0.000,-1000.000,0.000,-1557.737,-49975.729,0.000,50000.0,1.0000,3,1.0000,1.0000,39.5632,1,1,0x200265E1710,-0.031,-1.000
228.461,1788986972.707,2522.251,-1007.953,-39541.520,0.000,0.000,-1000.000,0.000,-1557.737,-49975.729,0.000,50000.0,1.0000,3,1.0000,1.0000,39.6636,1,1,0x200265E1710,-0.031,-1.000
228.564,1788986972.812,2522.251,-1007.953,-39639.920,0.000,0.000,-1000.000,0.000,-1557.737,-49975.729,0.000,50000.0,1.0000,3,1.0000,1.0000,39.7720,1,1,0x200265E1710,-0.031,-1.000
228.689,1788986972.934,2522.251,-1007.953,-39769.979,0.000,0.000,-1000.000,0.000,-1557.737,-49975.729,0.000,50000.0,1.0000,3,1.0000,1.0000,39.8910,1,1,0x200265E1710,-0.031,-1.000
228.791,1788986973.036,2522.251,-1007.953,-39870.295,0.000,0.000,-1000.000,0.000,-1557.737,-49975.729,0.000,50000.0,1.0000,3,1.0000,1.0000,39.9952,1,1,0x200265E1710,-0.031,-1.000
228.922,1788986973.168,2522.251,-1007.953,-40004.239,0.000,0.000,-1000.000,0.000,-1557.737,-49975.729,0.000,50000.0,1.0000,3,1.0000,1.0000,40.1245,1,1,0x200265E1710,-0.031,-1.000
229.025,1788986973.271,2522.251,-1007.953,-40105.407,0.000,0.000,-1000.000,0.000,-1557.737,-49975.729,0.000,50000.0,1.0000,3,1.0000,1.0000,40.2295,1,1,0x200265E1710,-0.031,-1.000
229.147,1788986973.392,2522.251,-1007.953,-40227.001,0.000,0.000,-1000.000,0.000,-1557.737,-49975.729,0.000,50000.0,1.0000,3,1.0000,1.0000,40.3507,1,1,0x200265E1710,-0.031,-1.000
229.281,1788986973.526,2522.251,-1007.953,-40362.206,0.000,0.000,-1000.000,0.000,-1557.737,-49975.729,0.000,50000.0,1.0000,3,1.0000,1.0000,40.4856,1,1,0x200265E1710,-0.031,-1.000
229.383,1788986973.629,2522.251,-1007.953,-40462.728,0.000,0.000,-1000.000,0.000,-1557.737,-49975.729,0.000,50000.0,1.0000,3,1.0000,1.0000,40.5856,1,1,0x200265E1710,-0.031,-1.000
229.538,1788986973.784,2522.251,-1007.953,-40618.606,0.000,0.000,-1000.000,0.000,-34377.053,-36307.275,0.000,50000.0,1.0000,3,1.0000,1.0000,40.7410,1,1,0x200265E1710,-0.688,-0.726
229.641,1788986973.887,2522.251,-1007.953,-40723.508,0.000,0.000,-1000.000,0.000,-34377.053,-36307.275,0.000,50000.0,1.0000,3,1.0000,1.0000,40.8455,1,1,0x200265E1710,-0.688,-0.726
229.744,1788986973.989,2522.251,-1007.953,-40828.134,0.000,0.000,-1000.000,0.000,-34377.053,-36307.275,0.000,50000.0,1.0000,3,1.0000,1.0000,40.9498,1,1,0x200265E1710,-0.688,-0.726
229.847,1788986974.093,2522.251,-1007.953,-40928.477,0.000,0.000,-1000.000,0.000,-34377.053,-36307.275,0.000,50000.0,1.0000,3,1.0000,1.0000,41.0498,1,1,0x200265E1710,-0.688,-0.726
229.972,1788986974.217,2522.251,-1007.953,-41053.908,0.000,0.000,-1000.000,0.000,-34377.053,-36307.275,0.000,50000.0,1.0000,3,1.0000,1.0000,41.1748,1,1,0x200265E1710,-0.688,-0.726
230.105,1788986974.351,2522.251,-1007.953,-41187.663,0.000,0.000,-1000.000,0.000,-34377.053,-36307.275,0.000,50000.0,1.0000,3,1.0000,1.0000,41.3081,1,1,0x200265E1710,-0.688,-0.726
230.208,1788986974.455,2522.251,-1007.953,-41292.169,0.000,0.000,-1000.000,0.000,-34377.053,-36307.275,0.000,50000.0,1.0000,3,1.0000,1.0000,41.4123,1,1,0x200265E1710,-0.688,-0.726
230.330,1788986974.576,2522.251,-1007.953,-41413.457,0.000,0.000,-1000.000,0.000,-34377.053,-36307.275,0.000,50000.0,1.0000,3,1.0000,1.0000,41.5332,1,1,0x200265E1710,-0.688,-0.726
230.456,1788986974.702,2522.251,-1007.953,-41538.904,0.000,0.000,-1000.000,0.000,-34377.053,-36307.275,0.000,50000.0,1.0000,3,1.0000,1.0000,41.6582,1,1,0x200265E1710,-0.688,-0.726
230.559,1788986974.805,2522.251,-1007.953,-41623.210,0.000,0.000,-1000.000,0.000,-34377.053,-36307.275,0.000,50000.0,1.0000,3,1.0000,1.0000,41.7374,1,1,0x200265E1710,-0.688,-0.726
230.661,1788986974.907,2522.251,-1007.953,-41725.660,0.000,0.000,-1000.000,0.000,-34377.053,-36307.275,0.000,50000.0,1.0000,3,1.0000,1.0000,41.8374,1,1,0x200265E1710,-0.688,-0.726
230.764,1788986975.008,2522.251,-1007.953,-41828.111,0.000,0.000,-1000.000,0.000,-34377.053,-36307.275,0.000,50000.0,1.0000,3,1.0000,1.0000,41.9374,1,1,0x200265E1710,-0.688,-0.726
230.896,1788986975.143,2522.251,-1007.953,-41964.712,0.000,0.000,-1000.000,0.000,-34377.053,-36307.275,0.000,50000.0,1.0000,3,1.0000,1.0000,42.0707,1,1,0x200265E1710,-0.688,-0.726
231.000,1788986975.246,2522.251,-1007.953,-42067.162,0.000,0.000,-1000.000,0.000,-34377.053,-36307.275,0.000,50000.0,1.0000,3,1.0000,1.0000,42.2040,1,1,0x200265E1710,-0.688,-0.726
231.103,1788986975.348,2522.251,-1007.953,-42203.764,0.000,0.000,-1000.000,0.000,-34377.053,-36307.275,0.000,50000.0,1.0000,3,1.0000,1.0000,42.3040,1,1,0x200265E1710,-0.688,-0.726
231.238,1788986975.484,2522.251,-1007.953,-42340.373,0.000,0.000,-1000.000,0.000,-34377.053,-36307.275,0.000,50000.0,1.0000,3,1.0000,1.0000,42.4374,1,1,0x200265E1710,-0.688,-0.726
231.341,1788986975.586,2522.251,-1007.953,-42442.920,0.000,0.000,-1000.000,0.000,-34377.053,-36307.275,0.000,50000.0,1.0000,3,1.0000,1.0000,42.5375,1,1,0x200265E1710,-0.688,-0.726
231.446,1788986975.693,2522.251,-1007.953,-42545.371,0.000,0.000,-1000.000,0.000,-34377.053,-36307.275,0.000,50000.0,1.0000,3,1.0000,1.0000,42.6375,1,1,0x200265E1710,-0.688,-0.726
231.563,1788986975.809,2522.251,-1007.953,-42647.822,0.000,0.000,-1000.000,0.000,31161.369,39102.034,0.000,50000.0,1.0000,3,1.0000,1.0000,42.7374,1,1,0x200265E1710,0.623,0.782
231.666,1788986975.911,2522.251,-1007.953,-42750.273,0.000,0.000,-1000.000,0.000,31161.369,39102.034,0.000,50000.0,1.0000,3,1.0000,1.0000,42.8708,1,1,0x200265E1710,0.623,0.782
231.769,1788986976.016,2522.251,-1007.953,-42886.874,0.000,0.000,-1000.000,0.000,31161.369,39102.034,0.000,50000.0,1.0000,3,1.0000,1.0000,42.9708,1,1,0x200265E1710,0.623,0.782
231.888,1788986976.134,2522.251,-1007.953,-42989.325,0.000,0.000,-1000.000,0.000,31161.369,39102.034,0.000,50000.0,1.0000,3,1.0000,1.0000,43.0708,1,1,0x200265E1710,0.623,0.782
231.990,1788986976.236,2522.251,-1007.953,-43091.776,0.000,0.000,-1000.000,0.000,31161.369,39102.034,0.000,50000.0,1.0000,3,1.0000,1.0000,43.1708,1,1,0x200265E1710,0.623,0.782
232.093,1788986976.339,2522.251,-1007.953,-43194.226,0.000,0.000,-1000.000,0.000,31161.369,39102.034,0.000,50000.0,1.0000,3,1.0000,1.0000,43.2708,1,1,0x200265E1710,0.623,0.782
232.195,1788986976.441,2522.251,-1007.953,-43296.677,0.000,0.000,-1000.000,0.000,31161.369,39102.034,0.000,50000.0,1.0000,3,1.0000,1.0000,43.3708,1,1,0x200265E1710,0.623,0.782
232.313,1788986976.558,2522.251,-1007.953,-43433.310,0.000,0.000,-1000.000,0.000,31161.369,39102.034,0.000,50000.0,1.0000,3,1.0000,1.0000,43.5041,1,1,0x200265E1710,0.623,0.782
232.415,1788986976.661,2522.251,-1007.953,-43535.761,0.000,0.000,-1000.000,0.000,31161.369,39102.034,0.000,50000.0,1.0000,3,1.0000,1.0000,43.6041,1,1,0x200265E1710,0.623,0.782
232.518,1788986976.763,2522.251,-1007.953,-43638.212,0.000,0.000,-1000.000,0.000,31161.369,39102.034,0.000,50000.0,1.0000,3,1.0000,1.0000,43.7041,1,1,0x200265E1710,0.623,0.782
232.621,1788986976.867,2522.251,-1007.953,-43740.663,0.000,0.000,-1000.000,0.000,31161.369,39102.034,0.000,50000.0,1.0000,3,1.0000,1.0000,43.8041,1,1,0x200265E1710,0.623,0.782
232.745,1788986976.992,2522.251,-1007.953,-43877.265,0.000,0.000,-1000.000,0.000,31161.369,39102.034,0.000,50000.0,1.0000,3,1.0000,1.0000,43.9375,1,1,0x200265E1710,0.623,0.782
232.848,1788986977.094,2522.251,-1007.953,-43979.715,0.000,0.000,-1000.000,0.000,31161.369,39102.034,0.000,50000.0,1.0000,3,1.0000,1.0000,44.0375,1,1,0x200265E1710,0.623,0.782
232.952,1788986977.198,2522.251,-1007.953,-44082.166,0.000,0.000,-1000.000,0.000,31161.369,39102.034,0.000,50000.0,1.0000,3,1.0000,1.0000,44.1375,1,1,0x200265E1710,0.623,0.782
233.055,1788986977.301,2522.251,-1007.953,-44184.616,0.000,0.000,-1000.000,0.000,31161.369,39102.034,0.000,50000.0,1.0000,3,1.0000,1.0000,44.2375,1,1,0x200265E1710,0.623,0.782
233.171,1788986977.417,2522.251,-1007.953,-44321.217,0.000,0.000,-1000.000,0.000,31161.369,39102.034,0.000,50000.0,1.0000,3,1.0000,1.0000,44.3708,1,1,0x200265E1710,0.623,0.782
233.274,1788986977.520,2522.251,-1007.953,-44423.668,0.000,0.000,-1000.000,0.000,31161.369,39102.034,0.000,50000.0,1.0000,3,1.0000,1.0000,44.4708,1,1,0x200265E1710,0.623,0.782
233.376,1788986977.622,2522.251,-1007.953,-44526.119,0.000,0.000,-1000.000,0.000,31161.369,39102.034,0.000,50000.0,1.0000,3,1.0000,1.0000,44.5708,1,1,0x200265E1710,0.623,0.782
233.480,1788986977.726,2522.251,-1007.953,-44628.570,0.000,0.000,-1000.000,0.000,31161.369,39102.034,0.000,50000.0,1.0000,3,1.0000,1.0000,44.6708,1,1,0x200265E1710,0.623,0.782
233.604,1788986977.850,2522.251,-1007.953,-44765.172,0.000,0.000,-1000.000,0.000,-38923.634,31383.925,0.000,50000.0,1.0000,3,1.0000,1.0000,44.8041,1,1,0x200265E1710,-0.778,0.628
233.707,1788986977.952,2522.251,-1007.953,-44867.622,0.000,0.000,-1000.000,0.000,-38923.634,31383.925,0.000,50000.0,1.0000,3,1.0000,1.0000,44.9041,1,1,0x200265E1710,-0.778,0.628
233.809,1788986978.055,2522.251,-1007.953,-44970.073,0.000,0.000,-1000.000,0.000,-38923.634,31383.925,0.000,50000.0,1.0000,3,1.0000,1.0000,45.0041,1,1,0x200265E1710,-0.778,0.628
233.912,1788986978.158,2522.251,-1007.953,-45072.524,0.000,0.000,-1000.000,0.000,-38923.634,31383.925,0.000,50000.0,1.0000,3,1.0000,1.0000,45.1041,1,1,0x200265E1710,-0.778,0.628
234.015,1788986978.260,2522.251,-1007.953,-45174.974,0.000,0.000,-1000.000,0.000,-38923.634,31383.925,0.000,50000.0,1.0000,3,1.0000,1.0000,45.2041,1,1,0x200265E1710,-0.778,0.628
234.116,1788986978.362,2522.251,-1007.953,-45277.425,0.000,0.000,-1000.000,0.000,-38923.634,31383.925,0.000,50000.0,1.0000,3,1.0000,1.0000,45.3041,1,1,0x200265E1710,-0.778,0.628
234.237,1788986978.483,2522.251,-1007.953,-45414.026,0.000,0.000,-1000.000,0.000,-38923.634,31383.925,0.000,50000.0,1.0000,3,1.0000,1.0000,45.4374,1,1,0x200265E1710,-0.778,0.628
234.340,1788986978.586,2522.251,-1007.953,-45516.476,0.000,0.000,-1000.000,0.000,-38923.634,31383.925,0.000,50000.0,1.0000,3,1.0000,1.0000,45.5374,1,1,0x200265E1710,-0.778,0.628
234.442,1788986978.688,2522.251,-1007.953,-45618.927,0.000,0.000,-1000.000,0.000,-38923.634,31383.925,0.000,50000.0,1.0000,3,1.0000,1.0000,45.6374,1,1,0x200265E1710,-0.778,0.628
234.544,1788986978.789,2522.251,-1007.953,-45721.378,0.000,0.000,-1000.000,0.000,-38923.634,31383.925,0.000,50000.0,1.0000,3,1.0000,1.0000,45.7374,1,1,0x200265E1710,-0.778,0.628
234.646,1788986978.891,2522.251,-1007.953,-45823.829,0.000,0.000,-1000.000,0.000,-38923.634,31383.925,0.000,50000.0,1.0000,3,1.0000,1.0000,45.8374,1,1,0x200265E1710,-0.778,0.628
234.749,1788986978.995,2522.251,-1007.953,-45926.280,0.000,0.000,-1000.000,0.000,-38923.634,31383.925,0.000,50000.0,1.0000,3,1.0000,1.0000,45.9374,1,1,0x200265E1710,-0.778,0.628
234.852,1788986979.099,2522.251,-1007.953,-46028.731,0.000,0.000,-1000.000,0.000,-38923.634,31383.925,0.000,50000.0,1.0000,3,1.0000,1.0000,46.0374,1,1,0x200265E1710,-0.778,0.628
234.986,1788986979.232,2522.251,-1007.953,-46165.332,0.000,0.000,-1000.000,0.000,-38923.634,31383.925,0.000,50000.0,1.0000,3,1.0000,1.0000,46.1708,1,1,0x200265E1710,-0.778,0.628
235.089,1788986979.335,2522.251,-1007.953,-46267.782,0.000,0.000,-1000.000,0.000,-38923.634,31383.925,0.000,50000.0,1.0000,3,1.0000,1.0000,46.2708,1,1,0x200265E1710,-0.778,0.628
235.212,1788986979.457,2522.251,-1007.953,-46404.383,0.000,0.000,-1000.000,0.000,-38923.634,31383.925,0.000,50000.0,1.0000,3,1.0000,1.0000,46.4041,1,1,0x200265E1710,-0.778,0.628
235.315,1788986979.560,2522.251,-1007.953,-46506.834,0.000,0.000,-1000.000,0.000,-38923.634,31383.925,0.000,50000.0,1.0000,3,1.0000,1.0000,46.5041,1,1,0x200265E1710,-0.778,0.628
235.444,1788986979.690,2522.251,-1007.953,-46643.435,0.000,0.000,-1000.000,0.000,-38923.634,31383.925,0.000,50000.0,1.0000,3,1.0000,1.0000,46.6374,1,1,0x200265E1710,-0.778,0.628
235.547,1788986979.793,2522.251,-1007.953,-46745.886,0.000,0.000,-1000.000,0.000,22763.360,44517.743,0.000,50000.0,1.0000,3,1.0000,1.0000,46.7374,1,1,0x200265E1710,0.455,0.890
235.650,1788986979.896,2522.251,-1007.953,-46848.339,0.000,0.000,-1000.000,0.000,22763.360,44517.743,0.000,50000.0,1.0000,3,1.0000,1.0000,46.8374,1,1,0x200265E1710,0.455,0.890
235.761,1788986980.007,2522.251,-1007.953,-46950.789,0.000,0.000,-1000.000,0.000,22763.360,44517.743,0.000,50000.0,1.0000,3,1.0000,1.0000,46.9374,1,1,0x200265E1710,0.455,0.890
235.863,1788986980.109,2522.251,-1007.953,-47053.240,0.000,0.000,-1000.000,0.000,22763.360,44517.743,0.000,50000.0,1.0000,3,1.0000,1.0000,47.0374,1,1,0x200265E1710,0.455,0.890
235.966,1788986980.212,2522.251,-1007.953,-47155.691,0.000,0.000,-1000.000,0.000,22763.360,44517.743,0.000,50000.0,1.0000,3,1.0000,1.0000,47.1707,1,1,0x200265E1710,0.455,0.890
236.070,1788986980.316,2522.251,-1007.953,-47292.292,0.000,0.000,-1000.000,0.000,22763.360,44517.743,0.000,50000.0,1.0000,3,1.0000,1.0000,47.2707,1,1,0x200265E1710,0.455,0.890
236.186,1788986980.431,2522.251,-1007.953,-47394.743,0.000,0.000,-1000.000,0.000,22763.360,44517.743,0.000,50000.0,1.0000,3,1.0000,1.0000,47.3707,1,1,0x200265E1710,0.455,0.890
236.288,1788986980.533,2522.251,-1007.953,-47497.194,0.000,0.000,-1000.000,0.000,22763.360,44517.743,0.000,50000.0,1.0000,3,1.0000,1.0000,47.4707,1,1,0x200265E1710,0.455,0.890
236.390,1788986980.637,2522.251,-1007.953,-47599.645,0.000,0.000,-1000.000,0.000,22763.360,44517.743,0.000,50000.0,1.0000,3,1.0000,1.0000,47.5707,1,1,0x200265E1710,0.455,0.890
236.511,1788986980.756,2522.251,-1007.953,-47736.283,0.000,0.000,-1000.000,0.000,22763.360,44517.743,0.000,50000.0,1.0000,3,1.0000,1.0000,47.7041,1,1,0x200265E1710,0.455,0.890
236.614,1788986980.860,2522.251,-1007.953,-47838.734,0.000,0.000,-1000.000,0.000,22763.360,44517.743,0.000,50000.0,1.0000,3,1.0000,1.0000,47.8041,1,1,0x200265E1710,0.455,0.890
236.717,1788986980.962,2522.251,-1007.953,-47941.185,0.000,0.000,-1000.000,0.000,22763.360,44517.743,0.000,50000.0,1.0000,3,1.0000,1.0000,47.9041,1,1,0x200265E1710,0.455,0.890
236.836,1788986981.083,2522.251,-1007.953,-48077.786,0.000,0.000,-1000.000,0.000,22763.360,44517.743,0.000,50000.0,1.0000,3,1.0000,1.0000,48.0374,1,1,0x200265E1710,0.455,0.890
236.940,1788986981.186,2522.251,-1007.953,-48180.411,0.000,0.000,-1000.000,0.000,22763.360,44517.743,0.000,50000.0,1.0000,3,1.0000,1.0000,48.1376,1,1,0x200265E1710,0.455,0.890
237.111,1788986981.356,2522.251,-1007.953,-48351.211,0.000,0.000,-1000.000,0.000,22763.360,44517.743,0.000,50000.0,1.0000,3,1.0000,1.0000,48.3043,1,1,0x200265E1710,0.455,0.890
237.214,1788986981.460,2522.251,-1007.953,-48453.662,0.000,0.000,-1000.000,0.000,22763.360,44517.743,0.000,50000.0,1.0000,3,1.0000,1.0000,48.4043,1,1,0x200265E1710,0.455,0.890
237.316,1788986981.562,2522.251,-1007.953,-48556.246,0.000,0.000,-1000.000,0.000,22763.360,44517.743,0.000,50000.0,1.0000,3,1.0000,1.0000,48.5044,1,1,0x200265E1710,0.455,0.890
237.419,1788986981.664,2522.251,-1007.953,-48658.697,0.000,0.000,-1000.000,0.000,22763.360,44517.743,0.000,50000.0,1.0000,3,1.0000,1.0000,48.6044,1,1,0x200265E1710,0.455,0.890
237.535,1788986981.781,2522.251,-1007.953,-48761.149,0.000,0.000,-1000.000,0.000,22763.360,44517.743,0.000,50000.0,1.0000,3,1.0000,1.0000,48.7378,1,1,0x200265E1710,-0.966,0.259
237.638,1788986981.884,2522.251,-1007.953,-48897.767,0.000,0.000,-1000.000,0.000,-48300.115,12926.675,0.000,50000.0,1.0000,3,1.0000,1.0000,48.8378,1,1,0x200265E1710,-0.966,0.259
237.742,1788986981.987,2522.251,-1007.953,-49000.218,0.000,0.000,-1000.000,0.000,-48300.115,12926.675,0.000,50000.0,1.0000,3,1.0000,1.0000,48.9378,1,1,0x200265E1710,-0.966,0.259
237.852,1788986982.098,2522.251,-1007.953,-49102.669,0.000,0.000,-1000.000,0.000,-48300.115,12926.675,0.000,50000.0,1.0000,3,1.0000,1.0000,49.0378,1,1,0x200265E1710,-0.966,0.259
237.955,1788986982.201,2522.251,-1007.953,-49205.120,0.000,0.000,-1000.000,0.000,-48300.115,12926.675,0.000,50000.0,1.0000,3,1.0000,1.0000,49.1378,1,1,0x200265E1710,-0.966,0.259
238.057,1788986982.304,2522.251,-1007.953,-49307.571,0.000,0.000,-1000.000,0.000,-48300.115,12926.675,0.000,50000.0,1.0000,3,1.0000,1.0000,49.2378,1,1,0x200265E1710,-0.966,0.259
238.168,1788986982.415,2522.251,-1007.953,-49410.021,0.000,0.000,-1000.000,0.000,-48300.115,12926.675,0.000,50000.0,1.0000,3,1.0000,1.0000,49.3711,1,1,0x200265E1710,-0.966,0.259
238.277,1788986982.523,2522.251,-1007.953,-49546.623,0.000,0.000,-1000.000,0.000,-48300.115,12926.675,0.000,50000.0,1.0000,3,1.0000,1.0000,49.4711,1,1,0x200265E1710,-0.966,0.259
238.379,1788986982.624,2522.251,-1007.953,-49649.106,0.000,0.000,-1000.000,0.000,-48300.115,12926.675,0.000,50000.0,1.0000,3,1.0000,1.0000,49.5711,1,1,0x200265E1710,-0.966,0.259
238.502,1788986982.747,2522.251,-1007.953,-49751.557,0.000,0.000,-1000.000,0.000,-48300.115,12926.675,0.000,50000.0,1.0000,3,1.0000,1.0000,49.7045,1,1,0x200265E1710,-0.966,0.259
238.605,1788986982.850,2522.251,-1007.953,-49888.158,0.000,0.000,-1000.000,0.000,-48300.115,12926.675,0.000,50000.0,1.0000,3,1.0000,1.0000,49.8045,1,1,0x200265E1710,-0.966,0.259
238.708,1788986982.954,2522.251,-1007.953,-49990.609,0.000,0.000,-1000.000,0.000,-48300.115,12926.675,0.000,50000.0,1.0000,3,1.0000,1.0000,49.9045,1,1,0x200265E1710,-0.966,0.259
238.827,1788986983.073,2522.251,-1007.953,-50093.060,0.000,0.000,-1000.000,0.000,-48300.115,12926.675,0.000,50000.0,1.0000,3,1.0000,1.0000,50.0045,1,1,0x200265E1710,-0.966,0.259
238.935,1788986983.181,2522.251,-1007.953,-50195.511,0.000,0.000,-1000.000,0.000,-48300.115,12926.675,0.000,50000.0,1.0000,3,1.0000,1.0000,50.1378,1,1,0x200265E1710,-0.966,0.259
239.039,1788986983.285,2522.251,-1007.953,-50332.112,0.000,0.000,-1000.000,0.000,-48300.115,12926.675,0.000,50000.0,1.0000,3,1.0000,1.0000,50.2378,1,1,0x200265E1710,-0.966,0.259
239.142,1788986983.387,2522.251,-1007.953,-50434.563,0.000,0.000,-1000.000,0.000,-48300.115,12926.675,0.000,50000.0,1.0000,3,1.0000,1.0000,50.3378,1,1,0x200265E1710,-0.966,0.259
239.260,1788986983.506,2522.251,-1007.953,-50537.020,0.000,0.000,-1000.000,0.000,-48300.115,12926.675,0.000,50000.0,1.0000,3,1.0000,1.0000,50.4378,1,1,0x200265E1710,-0.966,0.259
239.385,1788986983.631,2522.251,-1007.953,-50673.621,0.000,0.000,-1000.000,0.000,-48300.115,12926.675,0.000,50000.0,1.0000,3,1.0000,1.0000,50.5711,1,1,0x200265E1710,-0.966,0.259
239.488,1788986983.732,2522.251,-1007.953,-50776.071,0.000,0.000,-1000.000,0.000,-48300.115,12926.675,0.000,50000.0,1.0000,3,1.0000,1.0000,50.6711,1,1,0x200265E1710,-0.966,0.259
239.589,1788986983.834,2522.251,-1007.953,-50878.529,0.000,0.000,-1000.000,0.000,5930.369,49647.062,0.000,50000.0,1.0000,3,1.0000,1.0000,50.7711,1,1,0x200265E1710,0.119,0.993
239.702,1788986983.948,2522.251,-1007.953,-50980.980,0.000,0.000,-1000.000,0.000,5930.369,49647.062,0.000,50000.0,1.0000,3,1.0000,1.0000,50.9045,1,1,0x200265E1710,0.119,0.993
239.805,1788986984.049,2522.251,-1007.953,-51117.582,0.000,0.000,-1000.000,0.000,5930.369,49647.062,0.000,50000.0,1.0000,3,1.0000,1.0000,51.0045,1,1,0x200265E1710,0.119,0.993
239.927,1788986984.172,2522.251,-1007.953,-51220.032,0.000,0.000,-1000.000,0.000,5930.369,49647.062,0.000,50000.0,1.0000,3,1.0000,1.0000,51.1045,1,1,0x200265E1710,0.119,0.993
240.029,1788986984.274,2522.251,-1007.953,-51322.483,0.000,0.000,-1000.000,0.000,5930.369,49647.062,0.000,50000.0,1.0000,3,1.0000,1.0000,51.2045,1,1,0x200265E1710,0.119,0.993
240.132,1788986984.378,2522.251,-1007.953,-51424.934,0.000,0.000,-1000.000,0.000,5930.369,49647.062,0.000,50000.0,1.0000,3,1.0000,1.0000,51.3378,1,1,0x200265E1710,0.119,0.993
240.251,1788986984.497,2522.251,-1007.953,-51561.535,0.000,0.000,-1000.000,0.000,5930.369,49647.062,0.000,50000.0,1.0000,3,1.0000,1.0000,51.4378,1,1,0x200265E1710,0.119,0.993
240.354,1788986984.600,2522.251,-1007.953,-51663.986,0.000,0.000,-1000.000,0.000,5930.369,49647.062,0.000,50000.0,1.0000,3,1.0000,1.0000,51.5378,1,1,0x200265E1710,0.119,0.993
240.484,1788986984.730,2522.251,-1007.953,-51800.587,0.000,0.000,-1000.000,0.000,5930.369,49647.062,0.000,50000.0,1.0000,3,1.0000,1.0000,51.6711,1,1,0x200265E1710,0.119,0.993
240.588,1788986984.834,2522.251,-1007.953,-51903.093,0.000,0.000,-1000.000,0.000,5930.369,49647.062,0.000,50000.0,1.0000,3,1.0000,1.0000,51.7712,1,1,0x200265E1710,0.119,0.993
240.709,1788986984.954,2522.251,-1007.953,-52039.693,0.000,0.000,-1000.000,0.000,5930.369,49647.062,0.000,50000.0,1.0000,3,1.0000,1.0000,51.9045,1,1,0x200265E1710,0.119,0.993
240.811,1788986985.056,2522.251,-1007.953,-52147.669,0.000,0.000,-1000.000,0.000,5930.369,49647.062,0.000,50000.0,1.0000,3,1.0000,1.0000,52.0113,1,1,0x200265E1710,0.119,0.993
240.934,1788986985.180,2522.251,-1007.953,-52267.826,0.000,0.000,-1000.000,0.000,5930.369,49647.062,0.000,50000.0,1.0000,3,1.0000,1.0000,52.1354,1,1,0x200265E1710,0.119,0.993
241.038,1788986985.284,2522.251,-1007.953,-52376.400,0.000,0.000,-1000.000,0.000,5930.369,49647.062,0.000,50000.0,1.0000,3,1.0000,1.0000,52.2434,1,1,0x200265E1710,0.119,0.993
241.159,1788986985.405,2522.251,-1007.953,-52495.389,0.000,0.000,-1000.000,0.000,5930.369,49647.062,0.000,50000.0,1.0000,3,1.0000,1.0000,52.3620,1,1,0x200265E1710,0.119,0.993
241.263,1788986985.508,2522.251,-1007.953,-52601.702,0.000,0.000,-1000.000,0.000,5930.369,49647.062,0.000,50000.0,1.0000,3,1.0000,1.0000,52.4637,1,1,0x200265E1710,0.119,0.993
241.365,1788986985.611,2522.251,-1007.953,-52702.975,0.000,0.000,-1000.000,0.000,5930.369,49647.062,0.000,50000.0,1.0000,3,1.0000,1.0000,52.5691,1,1,0x200265E1710,0.119,0.993
241.492,1788986985.739,2522.251,-1007.953,-52831.584,0.000,0.000,-1000.000,0.000,5930.369,49647.062,0.000,50000.0,1.0000,3,1.0000,1.0000,52.6972,1,1,0x200265E1710,0.119,0.993
241.596,1788986985.842,2522.251,-1007.953,-52934.625,0.000,0.000,-1000.000,0.000,35552.241,35157.334,0.000,50000.0,1.0000,3,1.0000,1.0000,52.8006,1,1,0x200265E1710,0.711,0.703
241.699,1788986985.944,2522.251,-1007.953,-53014.768,0.000,0.000,-1000.000,0.000,35552.241,35157.334,0.000,50000.0,1.0000,3,1.0000,1.0000,52.8747,1,1,0x200265E1710,0.711,0.703
241.801,1788986986.048,2522.251,-1007.953,-53117.240,0.000,0.000,-1000.000,0.000,35552.241,35157.334,0.000,50000.0,1.0000,3,1.0000,1.0000,52.9747,1,1,0x200265E1710,0.711,0.703
241.925,1788986986.171,2522.251,-1007.953,-53253.841,0.000,0.000,-1000.000,0.000,35552.241,35157.334,0.000,50000.0,1.0000,3,1.0000,1.0000,53.1080,1,1,0x200265E1710,0.711,0.703
242.028,1788986986.273,2522.251,-1007.953,-53356.292,0.000,0.000,-1000.000,0.000,35552.241,35157.334,0.000,50000.0,1.0000,3,1.0000,1.0000,53.2080,1,1,0x200265E1710,0.711,0.703
242.130,1788986986.376,2522.251,-1007.953,-53458.743,0.000,0.000,-1000.000,0.000,35552.241,35157.334,0.000,50000.0,1.0000,3,1.0000,1.0000,53.3080,1,1,0x200265E1710,0.711,0.703
242.242,1788986986.488,2522.251,-1007.953,-53595.395,0.000,0.000,-1000.000,0.000,35552.241,35157.334,0.000,50000.0,1.0000,3,1.0000,1.0000,53.4414,1,1,0x200265E1710,0.711,0.703
242.345,1788986986.592,2522.251,-1007.953,-53697.846,0.000,0.000,-1000.000,0.000,35552.241,35157.334,0.000,50000.0,1.0000,3,1.0000,1.0000,53.5414,1,1,0x200265E1710,0.711,0.703
242.467,1788986986.712,2522.251,-1007.953,-53800.297,0.000,0.000,-1000.000,0.000,35552.241,35157.334,0.000,50000.0,1.0000,3,1.0000,1.0000,53.6414,1,1,0x200265E1710,0.711,0.703
242.569,1788986986.815,2522.251,-1007.953,-53902.747,0.000,0.000,-1000.000,0.000,35552.241,35157.334,0.000,50000.0,1.0000,3,1.0000,1.0000,53.7747,1,1,0x200265E1710,0.711,0.703
242.672,1788986986.917,2522.251,-1007.953,-54005.198,0.000,0.000,-1000.000,0.000,35552.241,35157.334,0.000,50000.0,1.0000,3,1.0000,1.0000,53.8747,1,1,0x200265E1710,0.711,0.703
242.783,1788986987.028,2522.251,-1007.953,-54141.799,0.000,0.000,-1000.000,0.000,35552.241,35157.334,0.000,50000.0,1.0000,3,1.0000,1.0000,53.9747,1,1,0x200265E1710,0.711,0.703
242.885,1788986987.130,2522.251,-1007.953,-54244.250,0.000,0.000,-1000.000,0.000,35552.241,35157.334,0.000,50000.0,1.0000,3,1.0000,1.0000,54.0747,1,1,0x200265E1710,0.711,0.703
242.987,1788986987.232,2522.251,-1007.953,-54346.701,0.000,0.000,-1000.000,0.000,35552.241,35157.334,0.000,50000.0,1.0000,3,1.0000,1.0000,54.1747,1,1,0x200265E1710,0.711,0.703
243.089,1788986987.335,2522.251,-1007.953,-54449.152,0.000,0.000,-1000.000,0.000,35552.241,35157.334,0.000,50000.0,1.0000,3,1.0000,1.0000,54.2747,1,1,0x200265E1710,0.711,0.703
243.208,1788986987.454,2522.251,-1007.953,-54585.753,0.000,0.000,-1000.000,0.000,35552.241,35157.334,0.000,50000.0,1.0000,3,1.0000,1.0000,54.4080,1,1,0x200265E1710,0.711,0.703
243.311,1788986987.556,2522.251,-1007.953,-54688.203,0.000,0.000,-1000.000,0.000,35552.241,35157.334,0.000,50000.0,1.0000,3,1.0000,1.0000,54.5080,1,1,0x200265E1710,0.711,0.703
243.434,1788986987.679,2522.251,-1007.953,-54790.654,0.000,0.000,-1000.000,0.000,35552.241,35157.334,0.000,50000.0,1.0000,3,1.0000,1.0000,54.6080,1,1,0x200265E1710,0.711,0.703
243.537,1788986987.783,2522.251,-1007.953,-54893.105,0.000,0.000,-1000.000,0.000,35552.241,35157.334,0.000,50000.0,1.0000,3,1.0000,1.0000,54.7414,1,1,0x200265E1710,0.526,-0.851
243.640,1788986987.886,2522.251,-1007.953,-55029.706,0.000,0.000,-1000.000,0.000,26283.242,-42534.588,0.000,50000.0,1.0000,3,1.0000,1.0000,54.8414,1,1,0x200265E1710,0.526,-0.851
243.743,1788986987.989,2522.251,-1007.953,-55132.157,0.000,0.000,-1000.000,0.000,26283.242,-42534.588,0.000,50000.0,1.0000,3,1.0000,1.0000,54.9414,1,1,0x200265E1710,0.526,-0.851
243.846,1788986988.092,2522.251,-1007.953,-55234.607,0.000,0.000,-1000.000,0.000,26283.242,-42534.588,0.000,50000.0,1.0000,3,1.0000,1.0000,55.0414,1,1,0x200265E1710,0.526,-0.851
243.967,1788986988.213,2522.251,-1007.953,-55337.058,0.000,0.000,-1000.000,0.000,26283.242,-42534.588,0.000,50000.0,1.0000,3,1.0000,1.0000,55.1414,1,1,0x200265E1710,0.526,-0.851
244.070,1788986988.317,2522.251,-1007.953,-55439.509,0.000,0.000,-1000.000,0.000,26283.242,-42534.588,0.000,50000.0,1.0000,3,1.0000,1.0000,55.2747,1,1,0x200265E1710,0.526,-0.851
244.173,1788986988.419,2522.251,-1007.953,-55576.112,0.000,0.000,-1000.000,0.000,26283.242,-42534.588,0.000,50000.0,1.0000,3,1.0000,1.0000,55.3747,1,1,0x200265E1710,0.526,-0.851
244.292,1788986988.538,2522.251,-1007.953,-55678.563,0.000,0.000,-1000.000,0.000,26283.242,-42534.588,0.000,50000.0,1.0000,3,1.0000,1.0000,55.4747,1,1,0x200265E1710,0.526,-0.851
244.395,1788986988.641,2522.251,-1007.953,-55781.013,0.000,0.000,-1000.000,0.000,26283.242,-42534.588,0.000,50000.0,1.0000,3,1.0000,1.0000,55.5747,1,1,0x200265E1710,0.526,-0.851
244.517,1788986988.762,2522.251,-1007.953,-55917.713,0.000,0.000,-1000.000,0.000,26283.242,-42534.588,0.000,50000.0,1.0000,3,1.0000,1.0000,55.7081,1,1,0x200265E1710,0.526,-0.851
244.619,1788986988.865,2522.251,-1007.953,-56020.164,0.000,0.000,-1000.000,0.000,26283.242,-42534.588,0.000,50000.0,1.0000,3,1.0000,1.0000,55.8081,1,1,0x200265E1710,0.526,-0.851
244.722,1788986988.968,2522.251,-1007.953,-56122.614,0.000,0.000,-1000.000,0.000,26283.242,-42534.588,0.000,50000.0,1.0000,3,1.0000,1.0000,55.9081,1,1,0x200265E1710,0.526,-0.851
244.825,1788986989.070,2522.251,-1007.953,-56225.065,0.000,0.000,-1000.000,0.000,26283.242,-42534.588,0.000,50000.0,1.0000,3,1.0000,1.0000,56.0081,1,1,0x200265E1710,0.526,-0.851
244.928,1788986989.174,2522.251,-1007.953,-56327.516,0.000,0.000,-1000.000,0.000,26283.242,-42534.588,0.000,50000.0,1.0000,3,1.0000,1.0000,56.1081,1,1,0x200265E1710,0.526,-0.851
245.031,1788986989.277,2522.251,-1007.953,-56430.162,0.000,0.000,-1000.000,0.000,26283.242,-42534.588,0.000,50000.0,1.0000,3,1.0000,1.0000,56.2083,1,1,0x200265E1710,0.526,-0.851
245.150,1788986989.395,2522.251,-1007.953,-56566.763,0.000,0.000,-1000.000,0.000,26283.242,-42534.588,0.000,50000.0,1.0000,3,1.0000,1.0000,56.3416,1,1,0x200265E1710,0.526,-0.851
245.252,1788986989.498,2522.251,-1007.953,-56669.214,0.000,0.000,-1000.000,0.000,26283.242,-42534.588,0.000,50000.0,1.0000,3,1.0000,1.0000,56.4416,1,1,0x200265E1710,0.526,-0.851
245.374,1788986989.619,2522.251,-1007.953,-56805.815,0.000,0.000,-1000.000,0.000,26283.242,-42534.588,0.000,50000.0,1.0000,3,1.0000,1.0000,56.5750,1,1,0x200265E1710,0.526,-0.851
245.477,1788986989.721,2522.251,-1007.953,-56908.266,0.000,0.000,-1000.000,0.000,26283.242,-42534.588,0.000,50000.0,1.0000,3,1.0000,1.0000,56.6750,1,1,0x200265E1710,0.526,-0.851
245.599,1788986989.845,2522.251,-1007.953,-57010.716,0.000,0.000,-1000.000,0.000,-34723.565,-35976.020,0.000,50000.0,1.0000,3,1.0000,1.0000,56.7750,1,1,0x200265E1710,-0.694,-0.720
245.703,1788986989.948,2522.251,-1007.953,-57113.167,0.000,0.000,-1000.000,0.000,-34723.565,-35976.020,0.000,50000.0,1.0000,3,1.0000,1.0000,56.8750,1,1,0x200265E1710,-0.694,-0.720
245.805,1788986990.050,2522.251,-1007.953,-57215.618,0.000,0.000,-1000.000,0.000,-34723.565,-35976.020,0.000,50000.0,1.0000,3,1.0000,1.0000,57.0083,1,1,0x200265E1710,-0.694,-0.720
245.924,1788986990.170,2522.251,-1007.953,-57352.219,0.000,0.000,-1000.000,0.000,-34723.565,-35976.020,0.000,50000.0,1.0000,3,1.0000,1.0000,57.1083,1,1,0x200265E1710,-0.694,-0.720
246.027,1788986990.273,2522.251,-1007.953,-57454.670,0.000,0.000,-1000.000,0.000,-34723.565,-35976.020,0.000,50000.0,1.0000,3,1.0000,1.0000,57.2083,1,1,0x200265E1710,-0.694,-0.720
246.141,1788986990.388,2522.251,-1007.953,-57591.271,0.000,0.000,-1000.000,0.000,-34723.565,-35976.020,0.000,50000.0,1.0000,3,1.0000,1.0000,57.3416,1,1,0x200265E1710,-0.694,-0.720
246.258,1788986990.504,2522.251,-1007.953,-57693.722,0.000,0.000,-1000.000,0.000,-34723.565,-35976.020,0.000,50000.0,1.0000,3,1.0000,1.0000,57.4416,1,1,0x200265E1710,-0.694,-0.720
246.365,1788986990.610,2522.251,-1007.953,-57796.172,0.000,0.000,-1000.000,0.000,-34723.565,-35976.020,0.000,50000.0,1.0000,3,1.0000,1.0000,57.5416,1,1,0x200265E1710,-0.694,-0.720
246.467,1788986990.712,2522.251,-1007.953,-57898.623,0.000,0.000,-1000.000,0.000,-34723.565,-35976.020,0.000,50000.0,1.0000,3,1.0000,1.0000,57.6416,1,1,0x200265E1710,-0.694,-0.720
246.590,1788986990.836,2522.251,-1007.953,-58035.224,0.000,0.000,-1000.000,0.000,-34723.565,-35976.020,0.000,50000.0,1.0000,3,1.0000,1.0000,57.7749,1,1,0x200265E1710,-0.694,-0.720
246.693,1788986990.939,2522.251,-1007.953,-58137.675,0.000,0.000,-1000.000,0.000,-34723.565,-35976.020,0.000,50000.0,1.0000,3,1.0000,1.0000,57.8749,1,1,0x200265E1710,-0.694,-0.720
246.796,1788986991.040,2522.251,-1007.953,-58240.126,0.000,0.000,-1000.000,0.000,-34723.565,-35976.020,0.000,50000.0,1.0000,3,1.0000,1.0000,57.9749,1,1,0x200265E1710,-0.694,-0.720
246.915,1788986991.161,2522.251,-1007.953,-58376.727,0.000,0.000,-1000.000,0.000,-34723.565,-35976.020,0.000,50000.0,1.0000,3,1.0000,1.0000,58.1083,1,1,0x200265E1710,-0.694,-0.720
247.018,1788986991.263,2522.251,-1007.953,-58479.178,0.000,0.000,-1000.000,0.000,-34723.565,-35976.020,0.000,50000.0,1.0000,3,1.0000,1.0000,58.2083,1,1,0x200265E1710,-0.694,-0.720
247.140,1788986991.386,2522.251,-1007.953,-58615.779,0.000,0.000,-1000.000,0.000,-34723.565,-35976.020,0.000,50000.0,1.0000,3,1.0000,1.0000,58.3416,1,1,0x200265E1710,-0.694,-0.720
247.243,1788986991.489,2522.251,-1007.953,-58718.230,0.000,0.000,-1000.000,0.000,-34723.565,-35976.020,0.000,50000.0,1.0000,3,1.0000,1.0000,58.4416,1,1,0x200265E1710,-0.694,-0.720
247.346,1788986991.592,2522.251,-1007.953,-58820.681,0.000,0.000,-1000.000,0.000,-34723.565,-35976.020,0.000,50000.0,1.0000,3,1.0000,1.0000,58.5416,1,1,0x200265E1710,-0.694,-0.720
247.457,1788986991.702,2522.251,-1007.953,-58923.132,0.000,0.000,-1000.000,0.000,-34723.565,-35976.020,0.000,50000.0,1.0000,3,1.0000,1.0000,58.6416,1,1,0x200265E1710,-0.694,-0.720
247.559,1788986991.804,2522.251,-1007.953,-59025.583,0.000,0.000,-1000.000,0.000,-25549.426,42979.377,0.000,50000.0,1.0000,3,1.0000,1.0000,58.7416,1,1,0x200265E1710,-0.511,0.860
247.681,1788986991.927,2522.251,-1007.953,-59162.184,0.000,0.000,-1000.000,0.000,-25549.426,42979.377,0.000,50000.0,1.0000,3,1.0000,1.0000,58.8749,1,1,0x200265E1710,-0.511,0.860
247.799,1788986992.044,2522.251,-1007.953,-59264.635,0.000,0.000,-1000.000,0.000,-25549.426,42979.377,0.000,50000.0,1.0000,3,1.0000,1.0000,58.9749,1,1,0x200265E1710,-0.511,0.860
247.906,1788986992.151,2522.251,-1007.953,-59367.086,0.000,0.000,-1000.000,0.000,-25549.426,42979.377,0.000,50000.0,1.0000,3,1.0000,1.0000,59.1083,1,1,0x200265E1710,-0.511,0.860
248.008,1788986992.253,2522.251,-1007.953,-59503.687,0.000,0.000,-1000.000,0.000,-25549.426,42979.377,0.000,50000.0,1.0000,3,1.0000,1.0000,59.2083,1,1,0x200265E1710,-0.511,0.860
248.110,1788986992.355,2522.251,-1007.953,-59606.138,0.000,0.000,-1000.000,0.000,-25549.426,42979.377,0.000,50000.0,1.0000,3,1.0000,1.0000,59.3083,1,1,0x200265E1710,-0.511,0.860
248.232,1788986992.478,2522.251,-1007.953,-59708.588,0.000,0.000,-1000.000,0.000,-25549.426,42979.377,0.000,50000.0,1.0000,3,1.0000,1.0000,59.4082,1,1,0x200265E1710,-0.511,0.860
248.335,1788986992.580,2522.251,-1007.953,-59811.039,0.000,0.000,-1000.000,0.000,-25549.426,42979.377,0.000,50000.0,1.0000,3,1.0000,1.0000,59.5082,1,1,0x200265E1710,-0.511,0.860
248.437,1788986992.682,2522.251,-1007.953,-59913.490,0.000,0.000,-1000.000,0.000,-25549.426,42979.377,0.000,50000.0,1.0000,3,1.0000,1.0000,59.6416,1,1,0x200265E1710,-0.511,0.860
248.556,1788986992.802,2522.251,-1007.953,-60050.090,0.000,0.000,-1000.000,0.000,-25549.426,42979.377,0.000,50000.0,1.0000,3,1.0000,1.0000,59.7416,1,1,0x200265E1710,-0.511,0.860
248.659,1788986992.904,2522.251,-1007.953,-60152.542,0.000,0.000,-1000.000,0.000,-25549.426,42979.377,0.000,50000.0,1.0000,3,1.0000,1.0000,59.8416,1,1,0x200265E1710,-0.511,0.860
248.781,1788986993.027,2522.251,-1007.953,-60289.143,0.000,0.000,-1000.000,0.000,-25549.426,42979.377,0.000,50000.0,1.0000,3,1.0000,1.0000,59.9749,1,1,0x200265E1710,-0.511,0.860
248.883,1788986993.129,2522.251,-1007.953,-60391.594,0.000,0.000,-1000.000,0.000,-25549.426,42979.377,0.000,50000.0,1.0000,3,1.0000,1.0000,60.0749,1,1,0x200265E1710,-0.511,0.860
249.006,1788986993.252,2522.251,-1007.953,-60494.045,0.000,0.000,-1000.000,0.000,-25549.426,42979.377,0.000,50000.0,1.0000,3,1.0000,1.0000,60.2082,1,1,0x200265E1710,-0.511,0.860
249.109,1788986993.355,2522.251,-1007.953,-60630.646,0.000,0.000,-1000.000,0.000,-25549.426,42979.377,0.000,50000.0,1.0000,3,1.0000,1.0000,60.3082,1,1,0x200265E1710,-0.511,0.860
249.212,1788986993.457,2522.251,-1007.953,-60733.097,0.000,0.000,-1000.000,0.000,-25549.426,42979.377,0.000,50000.0,1.0000,3,1.0000,1.0000,60.4082,1,1,0x200265E1710,-0.511,0.860
249.331,1788986993.577,2522.251,-1007.953,-60835.548,0.000,0.000,-1000.000,0.000,-25549.426,42979.377,0.000,50000.0,1.0000,3,1.0000,1.0000,60.5082,1,1,0x200265E1710,-0.511,0.860
249.439,1788986993.685,2522.251,-1007.953,-60937.999,0.000,0.000,-1000.000,0.000,-25549.426,42979.377,0.000,50000.0,1.0000,3,1.0000,1.0000,60.6416,1,1,0x200265E1710,-0.511,0.860
249.542,1788986993.787,2522.251,-1007.953,-61074.600,0.000,0.000,-1000.000,0.000,22865.723,44465.253,0.000,50000.0,1.0000,3,1.0000,1.0000,60.7416,1,1,0x200265E1710,0.457,0.889
249.645,1788986993.891,2522.251,-1007.953,-61177.050,0.000,0.000,-1000.000,0.000,22865.723,44465.253,0.000,50000.0,1.0000,3,1.0000,1.0000,60.8416,1,1,0x200265E1710,0.457,0.889
249.764,1788986994.010,2522.251,-1007.953,-61279.501,0.000,0.000,-1000.000,0.000,22865.723,44465.253,0.000,50000.0,1.0000,3,1.0000,1.0000,60.9416,1,1,0x200265E1710,0.457,0.889
249.867,1788986994.113,2522.251,-1007.953,-61381.952,0.000,0.000,-1000.000,0.000,22865.723,44465.253,0.000,50000.0,1.0000,3,1.0000,1.0000,61.0416,1,1,0x200265E1710,0.457,0.889
249.970,1788986994.215,2522.251,-1007.953,-61484.516,0.000,0.000,-1000.000,0.000,22865.723,44465.253,0.000,50000.0,1.0000,3,1.0000,1.0000,61.1750,1,1,0x200265E1710,0.457,0.889
250.072,1788986994.319,2522.251,-1007.953,-61586.966,0.000,0.000,-1000.000,0.000,22865.723,44465.253,0.000,50000.0,1.0000,3,1.0000,1.0000,61.2750,1,1,0x200265E1710,0.457,0.889
250.176,1788986994.422,2522.251,-1007.953,-61723.567,0.000,0.000,-1000.000,0.000,22865.723,44465.253,0.000,50000.0,1.0000,3,1.0000,1.0000,61.3750,1,1,0x200265E1710,0.457,0.889
250.279,1788986994.524,2522.251,-1007.953,-61826.018,0.000,0.000,-1000.000,0.000,22865.723,44465.253,0.000,50000.0,1.0000,3,1.0000,1.0000,61.4750,1,1,0x200265E1710,0.457,0.889
250.381,1788986994.626,2522.251,-1007.953,-61928.469,0.000,0.000,-1000.000,0.000,22865.723,44465.253,0.000,50000.0,1.0000,3,1.0000,1.0000,61.5750,1,1,0x200265E1710,0.457,0.889
250.483,1788986994.729,2522.251,-1007.953,-62030.920,0.000,0.000,-1000.000,0.000,22865.723,44465.253,0.000,50000.0,1.0000,3,1.0000,1.0000,61.6750,1,1,0x200265E1710,0.457,0.889
250.589,1788986994.834,2522.251,-1007.953,-62133.370,0.000,0.000,-1000.000,0.000,22865.723,44465.253,0.000,50000.0,1.0000,3,1.0000,1.0000,61.7750,1,1,0x200265E1710,0.457,0.889
250.690,1788986994.935,2522.251,-1007.953,-62235.821,0.000,0.000,-1000.000,0.000,22865.723,44465.253,0.000,50000.0,1.0000,3,1.0000,1.0000,61.8750,1,1,0x200265E1710,0.457,0.889
250.805,1788986995.051,2522.251,-1007.953,-62338.272,0.000,0.000,-1000.000,0.000,22865.723,44465.253,0.000,50000.0,1.0000,3,1.0000,1.0000,62.0083,1,1,0x200265E1710,0.457,0.889
250.908,1788986995.154,2522.251,-1007.953,-62474.873,0.000,0.000,-1000.000,0.000,22865.723,44465.253,0.000,50000.0,1.0000,3,1.0000,1.0000,62.1083,1,1,0x200265E1710,0.457,0.889
251.011,1788986995.256,2522.251,-1007.953,-62577.324,0.000,0.000,-1000.000,0.000,22865.723,44465.253,0.000,50000.0,1.0000,3,1.0000,1.0000,62.2083,1,1,0x200265E1710,0.457,0.889
251.114,1788986995.360,2522.251,-1007.953,-62679.774,0.000,0.000,-1000.000,0.000,22865.723,44465.253,0.000,50000.0,1.0000,3,1.0000,1.0000,62.3083,1,1,0x200265E1710,0.457,0.889
251.217,1788986995.463,2522.251,-1007.953,-62782.225,0.000,0.000,-1000.000,0.000,22865.723,44465.253,0.000,50000.0,1.0000,3,1.0000,1.0000,62.4083,1,1,0x200265E1710,0.457,0.889
251.320,1788986995.567,2522.251,-1007.953,-62884.676,0.000,0.000,-1000.000,0.000,22865.723,44465.253,0.000,50000.0,1.0000,3,1.0000,1.0000,62.5083,1,1,0x200265E1710,0.457,0.889
251.431,1788986995.676,2522.251,-1007.953,-62987.127,0.000,0.000,-1000.000,0.000,22865.723,44465.253,0.000,50000.0,1.0000,3,1.0000,1.0000,62.6083,1,1,0x200265E1710,0.457,0.889
251.533,1788986995.780,2522.251,-1007.953,-63089.578,0.000,0.000,-1000.000,0.000,22865.723,44465.253,0.000,50000.0,1.0000,3,1.0000,1.0000,62.7083,1,1,0x200265E1710,0.760,0.650
251.655,1788986995.901,2522.251,-1007.953,-63226.180,0.000,0.000,-1000.000,0.000,38011.182,32483.073,0.000,50000.0,1.0000,3,1.0000,1.0000,62.8416,1,1,0x200265E1710,0.760,0.650
251.758,1788986996.004,2522.251,-1007.953,-63328.632,0.000,0.000,-1000.000,0.000,38011.182,32483.073,0.000,50000.0,1.0000,3,1.0000,1.0000,62.9416,1,1,0x200265E1710,0.760,0.650
251.897,1788986996.143,2522.251,-1007.953,-63465.245,0.000,0.000,-1000.000,0.000,38011.182,32483.073,0.000,50000.0,1.0000,3,1.0000,1.0000,63.0750,1,1,0x200265E1710,0.760,0.650
252.000,1788986996.246,2522.251,-1007.953,-63567.696,0.000,0.000,-1000.000,0.000,38011.182,32483.073,0.000,50000.0,1.0000,3,1.0000,1.0000,63.1750,1,1,0x200265E1710,0.760,0.650
252.104,1788986996.350,2522.251,-1007.953,-63670.147,0.000,0.000,-1000.000,0.000,38011.182,32483.073,0.000,50000.0,1.0000,3,1.0000,1.0000,63.3083,1,1,0x200265E1710,0.760,0.650
252.222,1788986996.467,2522.251,-1007.953,-63806.748,0.000,0.000,-1000.000,0.000,38011.182,32483.073,0.000,50000.0,1.0000,3,1.0000,1.0000,63.4083,1,1,0x200265E1710,0.760,0.650
252.325,1788986996.571,2522.251,-1007.953,-63909.199,0.000,0.000,-1000.000,0.000,38011.182,32483.073,0.000,50000.0,1.0000,3,1.0000,1.0000,63.5083,1,1,0x200265E1710,0.760,0.650
252.446,1788986996.692,2522.251,-1007.953,-64045.800,0.000,0.000,-1000.000,0.000,38011.182,32483.073,0.000,50000.0,1.0000,3,1.0000,1.0000,63.6416,1,1,0x200265E1710,0.760,0.650
252.549,1788986996.795,2522.251,-1007.953,-64148.251,0.000,0.000,-1000.000,0.000,38011.182,32483.073,0.000,50000.0,1.0000,3,1.0000,1.0000,63.7416,1,1,0x200265E1710,0.760,0.650
252.652,1788986996.898,2522.251,-1007.953,-64250.701,0.000,0.000,-1000.000,0.000,38011.182,32483.073,0.000,50000.0,1.0000,3,1.0000,1.0000,63.8416,1,1,0x200265E1710,0.760,0.650
252.772,1788986997.017,2522.251,-1007.953,-64353.152,0.000,0.000,-1000.000,0.000,38011.182,32483.073,0.000,50000.0,1.0000,3,1.0000,1.0000,63.9750,1,1,0x200265E1710,0.760,0.650
252.875,1788986997.121,2522.251,-1007.953,-64489.753,0.000,0.000,-1000.000,0.000,38011.182,32483.073,0.000,50000.0,1.0000,3,1.0000,1.0000,64.0750,1,1,0x200265E1710,0.760,0.650
252.978,1788986997.222,2522.251,-1007.953,-64592.204,0.000,0.000,-1000.000,0.000,38011.182,32483.073,0.000,50000.0,1.0000,3,1.0000,1.0000,64.1750,1,1,0x200265E1710,0.760,0.650
253.096,1788986997.342,2522.251,-1007.953,-64694.655,0.000,0.000,-1000.000,0.000,38011.182,32483.073,0.000,50000.0,1.0000,3,1.0000,1.0000,64.2750,1,1,0x200265E1710,0.760,0.650
253.199,1788986997.445,2522.251,-1007.953,-64797.105,0.000,0.000,-1000.000,0.000,38011.182,32483.073,0.000,50000.0,1.0000,3,1.0000,1.0000,64.3750,1,1,0x200265E1710,0.760,0.650
253.321,1788986997.566,2522.251,-1007.953,-64933.706,0.000,0.000,-1000.000,0.000,38011.182,32483.073,0.000,50000.0,1.0000,3,1.0000,1.0000,64.5083,1,1,0x200265E1710,0.760,0.650
253.424,1788986997.670,2522.251,-1007.953,-65052.938,0.000,0.000,-1000.000,0.000,38011.182,32483.073,0.000,50000.0,1.0000,3,1.0000,1.0000,64.6255,1,1,0x200265E1710,0.760,0.650
253.547,1788986997.793,2522.251,-1007.953,-65174.568,0.000,0.000,-1000.000,0.000,-49084.948,-9521.967,0.000,50000.0,1.0000,3,1.0000,1.0000,64.7521,1,1,0x200265E1710,-0.982,-0.190
253.650,1788986997.896,2522.251,-1007.953,-65279.835,0.000,0.000,-1000.000,0.000,-49084.948,-9521.967,0.000,50000.0,1.0000,3,1.0000,1.0000,64.8516,1,1,0x200265E1710,-0.982,-0.190
253.754,1788986998.000,2522.251,-1007.953,-65382.136,0.000,0.000,-1000.000,0.000,-49084.948,-9521.967,0.000,50000.0,1.0000,3,1.0000,1.0000,64.9577,1,1,0x200265E1710,-0.982,-0.190
253.857,1788986998.103,2522.251,-1007.953,-65486.779,0.000,0.000,-1000.000,0.000,-49084.948,-9521.967,0.000,50000.0,1.0000,3,1.0000,1.0000,65.0620,1,1,0x200265E1710,-0.982,-0.190
253.960,1788986998.206,2522.251,-1007.953,-65587.331,0.000,0.000,-1000.000,0.000,-49084.948,-9521.967,0.000,50000.0,1.0000,3,1.0000,1.0000,65.1622,1,1,0x200265E1710,-0.982,-0.190
254.063,1788986998.309,2522.251,-1007.953,-65685.824,0.000,0.000,-1000.000,0.000,-49084.948,-9521.967,0.000,50000.0,1.0000,3,1.0000,1.0000,65.2619,1,1,0x200265E1710,-0.982,-0.190
254.166,1788986998.413,2522.251,-1007.953,-65793.474,0.000,0.000,-1000.000,0.000,-49084.948,-9521.967,0.000,50000.0,1.0000,3,1.0000,1.0000,65.3684,1,1,0x200265E1710,-0.982,-0.190
254.271,1788986998.517,2522.251,-1007.953,-65898.655,0.000,0.000,-1000.000,0.000,-49084.948,-9521.967,0.000,50000.0,1.0000,3,1.0000,1.0000,65.4728,1,1,0x200265E1710,-0.982,-0.190
254.374,1788986998.620,2522.251,-1007.953,-66003.071,0.000,0.000,-1000.000,0.000,-49084.948,-9521.967,0.000,50000.0,1.0000,3,1.0000,1.0000,65.5784,1,1,0x200265E1710,-0.982,-0.190
254.477,1788986998.723,2522.251,-1007.953,-66109.040,0.000,0.000,-1000.000,0.000,-49084.948,-9521.967,0.000,50000.0,1.0000,3,1.0000,1.0000,65.6820,1,1,0x200265E1710,-0.982,-0.190
254.580,1788986998.827,2522.251,-1007.953,-66209.419,0.000,0.000,-1000.000,0.000,-49084.948,-9521.967,0.000,50000.0,1.0000,3,1.0000,1.0000,65.7821,1,1,0x200265E1710,-0.982,-0.190
254.684,1788986998.930,2522.251,-1007.953,-66314.224,0.000,0.000,-1000.000,0.000,-49084.948,-9521.967,0.000,50000.0,1.0000,3,1.0000,1.0000,65.8865,1,1,0x200265E1710,-0.982,-0.190
254.787,1788986999.034,2522.251,-1007.953,-66417.009,0.000,0.000,-1000.000,0.000,-49084.948,-9521.967,0.000,50000.0,1.0000,3,1.0000,1.0000,65.9892,1,1,0x200265E1710,-0.982,-0.190
254.953,1788986999.200,2522.251,-1007.953,-66587.144,0.000,0.000,-1000.000,0.000,-49084.948,-9521.967,0.000,50000.0,1.0000,3,1.0000,1.0000,66.1544,1,1,0x200265E1710,-0.982,-0.190
255.063,1788986999.308,2522.251,-1007.953,-66694.873,0.000,0.000,-1000.000,0.000,-49084.948,-9521.967,0.000,50000.0,1.0000,3,1.0000,1.0000,66.2659,1,1,0x200265E1710,-0.982,-0.190
255.171,1788986999.416,2522.251,-1007.953,-66803.006,0.000,0.000,-1000.000,0.000,-49084.948,-9521.967,0.000,50000.0,1.0000,3,1.0000,1.0000,66.3737,1,1,0x200265E1710,-0.982,-0.190
255.273,1788986999.520,2522.251,-1007.953,-66905.215,0.000,0.000,-1000.000,0.000,-49084.948,-9521.967,0.000,50000.0,1.0000,3,1.0000,1.0000,66.4713,1,1,0x200265E1710,-0.982,-0.190
255.376,1788986999.622,2522.251,-1007.953,-67008.336,0.000,0.000,-1000.000,0.000,-49084.948,-9521.967,0.000,50000.0,1.0000,3,1.0000,1.0000,66.5786,1,1,0x200265E1710,-0.982,-0.190
255.479,1788986999.726,2522.251,-1007.953,-67114.870,0.000,0.000,-1000.000,0.000,-49084.948,-9521.967,0.000,50000.0,1.0000,3,1.0000,1.0000,66.6844,1,1,0x200265E1710,-0.982,-0.190
255.596,1788986999.842,2522.251,-1007.953,-67228.930,0.000,0.000,-1000.000,0.000,27399.452,-41824.275,0.000,50000.0,1.0000,3,1.0000,1.0000,66.7992,1,1,0x200265E1710,0.548,-0.836
255.721,1788986999.967,2522.251,-1007.953,-67357.837,0.000,0.000,-1006.824,0.000,27399.452,-41824.275,0.000,50000.0,1.0000,3,1.0000,1.0000,66.9223,1,1,0x200265E1710,0.548,-0.836
255.846,1788987000.091,2522.251,-1007.953,-67482.471,0.000,0.000,-1000.000,0.000,27399.452,-41824.275,0.000,50000.0,1.0000,3,1.0000,1.0000,67.0507,1,1,0x200265E1710,0.548,-0.836
255.948,1788987000.193,2522.251,-1007.953,-67584.130,0.000,0.000,-1000.000,0.000,27399.452,-41824.275,0.000,50000.0,1.0000,3,1.0000,1.0000,67.1520,1,1,0x200265E1710,0.548,-0.836
256.051,1788987000.297,2522.251,-1007.953,-67685.452,0.000,0.000,-1000.000,0.000,27399.452,-41824.275,0.000,50000.0,1.0000,3,1.0000,1.0000,67.2530,1,1,0x200265E1710,0.548,-0.836
256.170,1788987000.415,2522.251,-1007.953,-67804.992,0.000,0.000,-1000.000,0.000,27399.452,-41824.275,0.000,50000.0,1.0000,3,1.0000,1.0000,67.3672,1,1,0x200265E1710,0.548,-0.836
256.295,1788987000.541,2522.251,-1007.953,-67907.443,0.000,0.000,-1000.000,0.000,27399.452,-41824.275,0.000,50000.0,1.0000,3,1.0000,1.0000,67.4672,1,1,0x200265E1710,0.548,-0.836
256.403,1788987000.649,2522.251,-1007.953,-68044.125,0.000,0.000,-1000.000,0.000,27399.452,-41824.275,0.000,50000.0,1.0000,3,1.0000,1.0000,67.6007,1,1,0x200265E1710,0.548,-0.836
256.528,1788987000.774,2522.251,-1007.953,-68146.575,0.000,0.000,-1000.000,0.000,27399.452,-41824.275,0.000,50000.0,1.0000,3,1.0000,1.0000,67.7007,1,1,0x200265E1710,0.548,-0.836
256.631,1788987000.877,2522.251,-1007.953,-68249.026,0.000,0.000,-1000.000,0.000,27399.452,-41824.275,0.000,50000.0,1.0000,3,1.0000,1.0000,67.8340,1,1,0x200265E1710,0.548,-0.836
256.733,1788987000.979,2522.251,-1007.953,-68385.628,0.000,0.000,-1000.000,0.000,27399.452,-41824.275,0.000,50000.0,1.0000,3,1.0000,1.0000,67.9340,1,1,0x200265E1710,0.548,-0.836
256.845,1788987001.090,2522.251,-1007.953,-68488.078,0.000,0.000,-1000.000,0.000,27399.452,-41824.275,0.000,50000.0,1.0000,3,1.0000,1.0000,68.0340,1,1,0x200265E1710,0.548,-0.836
256.947,1788987001.194,2522.251,-1007.953,-68590.529,0.000,0.000,-1000.000,0.000,27399.452,-41824.275,0.000,50000.0,1.0000,3,1.0000,1.0000,68.1340,1,1,0x200265E1710,0.548,-0.836
257.070,1788987001.316,2522.251,-1007.953,-68727.130,0.000,0.000,-1000.000,0.000,27399.452,-41824.275,0.000,50000.0,1.0000,3,1.0000,1.0000,68.2673,1,1,0x200265E1710,0.548,-0.836
257.173,1788987001.418,2522.251,-1007.953,-68829.581,0.000,0.000,-1000.000,0.000,27399.452,-41824.275,0.000,50000.0,1.0000,3,1.0000,1.0000,68.3673,1,1,0x200265E1710,0.548,-0.836
257.295,1788987001.541,2522.251,-1007.953,-68932.032,0.000,0.000,-1000.000,0.000,27399.452,-41824.275,0.000,50000.0,1.0000,3,1.0000,1.0000,68.4673,1,1,0x200265E1710,0.548,-0.836
257.398,1788987001.644,2522.251,-1007.953,-69034.482,0.000,0.000,-1000.000,0.000,27399.452,-41824.275,0.000,50000.0,1.0000,3,1.0000,1.0000,68.6006,1,1,0x200265E1710,0.548,-0.836
257.501,1788987001.747,2522.251,-1007.953,-69171.084,0.000,0.000,-1000.000,0.000,27399.452,-41824.275,0.000,50000.0,1.0000,3,1.0000,1.0000,68.7006,1,1,0x200265E1710,0.548,-0.836
257.612,1788987001.857,2522.251,-1007.953,-69273.535,0.000,0.000,-1000.000,0.000,-35461.112,-35249.249,0.000,50000.0,1.0000,3,1.0000,1.0000,68.8006,1,1,0x200265E1710,-0.709,-0.705
257.714,1788987001.959,2522.251,-1007.953,-69375.986,0.000,0.000,-1000.000,0.000,-35461.112,-35249.249,0.000,50000.0,1.0000,3,1.0000,1.0000,68.9006,1,1,0x200265E1710,-0.709,-0.705
257.816,1788987002.061,2522.251,-1007.953,-69478.437,0.000,0.000,-1000.000,0.000,-35461.112,-35249.249,0.000,50000.0,1.0000,3,1.0000,1.0000,69.0006,1,1,0x200265E1710,-0.709,-0.705
257.927,1788987002.174,2522.251,-1007.953,-69580.888,0.000,0.000,-1000.000,0.000,-35461.112,-35249.249,0.000,50000.0,1.0000,3,1.0000,1.0000,69.1006,1,1,0x200265E1710,-0.709,-0.705
258.052,1788987002.297,2522.251,-1007.953,-69717.489,0.000,0.000,-1000.000,0.000,-35461.112,-35249.249,0.000,50000.0,1.0000,3,1.0000,1.0000,69.2340,1,1,0x200265E1710,-0.709,-0.705
258.154,1788987002.399,2522.251,-1007.953,-69819.940,0.000,0.000,-1000.000,0.000,-35461.112,-35249.249,0.000,50000.0,1.0000,3,1.0000,1.0000,69.3340,1,1,0x200265E1710,-0.709,-0.705
258.278,1788987002.523,2522.251,-1007.953,-69956.541,0.000,0.000,-1000.000,0.000,-35461.112,-35249.249,0.000,50000.0,1.0000,3,1.0000,1.0000,69.4673,1,1,0x200265E1710,-0.709,-0.705
258.403,1788987002.649,2522.251,-1007.953,-70093.142,0.000,0.000,-1000.000,0.000,-35461.112,-35249.249,0.000,50000.0,1.0000,3,1.0000,1.0000,69.6006,1,1,0x200265E1710,-0.709,-0.705
258.511,1788987002.757,2522.251,-1007.953,-70195.593,0.000,0.000,-1000.000,0.000,-35461.112,-35249.249,0.000,50000.0,1.0000,3,1.0000,1.0000,69.7006,1,1,0x200265E1710,-0.709,-0.705
258.615,1788987002.860,2522.251,-1007.953,-70298.044,0.000,0.000,-1000.000,0.000,-35461.112,-35249.249,0.000,50000.0,1.0000,3,1.0000,1.0000,69.8006,1,1,0x200265E1710,-0.709,-0.705
258.752,1788987002.998,2522.251,-1007.953,-70434.645,0.000,0.000,-1000.000,0.000,-35461.112,-35249.249,0.000,50000.0,1.0000,3,1.0000,1.0000,69.9340,1,1,0x200265E1710,-0.709,-0.705
258.855,1788987003.099,2522.251,-1007.953,-70537.096,0.000,0.000,-1000.000,0.000,-35461.112,-35249.249,0.000,50000.0,1.0000,3,1.0000,1.0000,70.0340,1,1,0x200265E1710,-0.709,-0.705
258.977,1788987003.223,2522.251,-1007.953,-70673.697,0.000,0.000,-1000.000,0.000,-35461.112,-35249.249,0.000,50000.0,1.0000,3,1.0000,1.0000,70.1673,1,1,0x200265E1710,-0.709,-0.705
259.080,1788987003.325,2522.251,-1007.953,-70776.147,0.000,0.000,-1000.000,0.000,-35461.112,-35249.249,0.000,50000.0,1.0000,3,1.0000,1.0000,70.2673,1,1,0x200265E1710,-0.709,-0.705
259.203,1788987003.449,2522.251,-1007.953,-70912.749,0.000,0.000,-1000.000,0.000,-35461.112,-35249.249,0.000,50000.0,1.0000,3,1.0000,1.0000,70.4006,1,1,0x200265E1710,-0.709,-0.705
259.306,1788987003.552,2522.251,-1007.953,-71015.199,0.000,0.000,-1000.000,0.000,-35461.112,-35249.249,0.000,50000.0,1.0000,3,1.0000,1.0000,70.5006,1,1,0x200265E1710,-0.709,-0.705
259.409,1788987003.654,2522.251,-1007.953,-71117.650,0.000,0.000,-1000.000,0.000,-35461.112,-35249.249,0.000,50000.0,1.0000,3,1.0000,1.0000,70.6006,1,1,0x200265E1710,-0.709,-0.705
259.511,1788987003.757,2522.251,-1007.953,-71220.101,0.000,0.000,-1000.000,0.000,-35461.112,-35249.249,0.000,50000.0,1.0000,3,1.0000,1.0000,70.7006,1,1,0x200265E1710,-0.709,-0.705
259.619,1788987003.864,2522.251,-1007.953,-71322.552,0.000,0.000,-1000.000,0.000,-48543.692,11979.565,0.000,50000.0,1.0000,3,1.0000,1.0000,70.8006,1,1,0x200265E1710,-0.971,0.240
259.721,1788987003.967,2522.251,-1007.953,-71425.002,0.000,0.000,-1000.000,0.000,-48543.692,11979.565,0.000,50000.0,1.0000,3,1.0000,1.0000,70.9006,1,1,0x200265E1710,-0.971,0.240
259.824,1788987004.070,2522.251,-1007.953,-71527.453,0.000,0.000,-1000.000,0.000,-48543.692,11979.565,0.000,50000.0,1.0000,3,1.0000,1.0000,71.0006,1,1,0x200265E1710,-0.971,0.240
259.952,1788987004.199,2522.251,-1007.953,-71664.054,0.000,0.000,-1000.000,0.000,-48543.692,11979.565,0.000,50000.0,1.0000,3,1.0000,1.0000,71.1339,1,1,0x200265E1710,-0.971,0.240
260.056,1788987004.301,2522.251,-1007.953,-71766.505,0.000,0.000,-1000.000,0.000,-48543.692,11979.565,0.000,50000.0,1.0000,3,1.0000,1.0000,71.2339,1,1,0x200265E1710,-0.971,0.240
260.158,1788987004.402,2522.251,-1007.953,-71868.956,0.000,0.000,-1000.000,0.000,-48543.692,11979.565,0.000,50000.0,1.0000,3,1.0000,1.0000,71.3339,1,1,0x200265E1710,-0.971,0.240
260.285,1788987004.531,2522.251,-1007.953,-72005.557,0.000,0.000,-1000.000,0.000,-48543.692,11979.565,0.000,50000.0,1.0000,3,1.0000,1.0000,71.4673,1,1,0x200265E1710,-0.971,0.240
260.387,1788987004.633,2522.251,-1007.953,-72108.008,0.000,0.000,-1000.000,0.000,-48543.692,11979.565,0.000,50000.0,1.0000,3,1.0000,1.0000,71.5673,1,1,0x200265E1710,-0.971,0.240
260.511,1788987004.756,2522.251,-1007.953,-72244.609,0.000,0.000,-1000.000,0.000,-48543.692,11979.565,0.000,50000.0,1.0000,3,1.0000,1.0000,71.7006,1,1,0x200265E1710,-0.971,0.240
260.613,1788987004.857,2522.251,-1007.953,-72347.060,0.000,0.000,-1000.000,0.000,-48543.692,11979.565,0.000,50000.0,1.0000,3,1.0000,1.0000,71.8006,1,1,0x200265E1710,-0.971,0.240
260.735,1788987004.981,2522.251,-1007.953,-72483.661,0.000,0.000,-1000.000,0.000,-48543.692,11979.565,0.000,50000.0,1.0000,3,1.0000,1.0000,71.9339,1,1,0x200265E1710,-0.971,0.240
260.843,1788987005.089,2522.251,-1007.953,-72586.112,0.000,0.000,-1000.000,0.000,-48543.692,11979.565,0.000,50000.0,1.0000,3,1.0000,1.0000,72.0339,1,1,0x200265E1710,-0.971,0.240
260.946,1788987005.192,2522.251,-1007.953,-72688.563,0.000,0.000,-1000.000,0.000,-48543.692,11979.565,0.000,50000.0,1.0000,3,1.0000,1.0000,72.1339,1,1,0x200265E1710,-0.971,0.240
261.069,1788987005.314,2522.251,-1007.953,-72825.164,0.000,0.000,-1000.000,0.000,-48543.692,11979.565,0.000,50000.0,1.0000,3,1.0000,1.0000,72.2673,1,1,0x200265E1710,-0.971,0.240
261.172,1788987005.418,2522.251,-1007.953,-72927.625,0.000,0.000,-1000.000,0.000,-48543.692,11979.565,0.000,50000.0,1.0000,3,1.0000,1.0000,72.3673,1,1,0x200265E1710,-0.971,0.240
261.302,1788987005.547,2522.251,-1007.953,-73064.226,0.000,0.000,-1000.000,0.000,-48543.692,11979.565,0.000,50000.0,1.0000,3,1.0000,1.0000,72.5006,1,1,0x200265E1710,-0.971,0.240
261.404,1788987005.649,2522.251,-1007.953,-73166.677,0.000,0.000,-1000.000,0.000,-48543.692,11979.565,0.000,50000.0,1.0000,3,1.0000,1.0000,72.6006,1,1,0x200265E1710,-0.971,0.240
261.527,1788987005.773,2522.251,-1007.953,-73269.128,0.000,0.000,-1000.000,0.000,-48543.692,11979.565,0.000,50000.0,1.0000,3,1.0000,1.0000,72.7006,1,1,0x200265E1710,-0.971,0.240
261.652,1788987005.898,2522.251,-1007.953,-73405.794,0.000,0.000,-1000.000,0.000,44053.837,-23648.668,0.000,50000.0,1.0000,3,1.0000,1.0000,72.8340,1,1,0x200265E1710,0.881,-0.473
261.754,1788987006.001,2522.251,-1007.953,-73508.245,0.000,0.000,-1000.000,0.000,44053.837,-23648.668,0.000,50000.0,1.0000,3,1.0000,1.0000,72.9340,1,1,0x200265E1710,0.881,-0.473
261.858,1788987006.104,2522.251,-1007.953,-73610.695,0.000,0.000,-1000.000,0.000,44053.837,-23648.668,0.000,50000.0,1.0000,3,1.0000,1.0000,73.0340,1,1,0x200265E1710,0.881,-0.473
261.985,1788987006.231,2522.251,-1007.953,-73747.296,0.000,0.000,-1000.000,0.000,44053.837,-23648.668,0.000,50000.0,1.0000,3,1.0000,1.0000,73.1673,1,1,0x200265E1710,0.881,-0.473
262.088,1788987006.334,2522.251,-1007.953,-73849.747,0.000,0.000,-1000.000,0.000,44053.837,-23648.668,0.000,50000.0,1.0000,3,1.0000,1.0000,73.2673,1,1,0x200265E1710,0.881,-0.473
262.210,1788987006.455,2522.251,-1007.953,-73986.348,0.000,0.000,-1000.000,0.000,44053.837,-23648.668,0.000,50000.0,1.0000,3,1.0000,1.0000,73.4006,1,1,0x200265E1710,0.881,-0.473
262.312,1788987006.559,2522.251,-1007.953,-74088.799,0.000,0.000,-1000.000,0.000,44053.837,-23648.668,0.000,50000.0,1.0000,3,1.0000,1.0000,73.5006,1,1,0x200265E1710,0.881,-0.473
262.435,1788987006.681,2522.251,-1007.953,-74225.400,0.000,0.000,-1000.000,0.000,44053.837,-23648.668,0.000,50000.0,1.0000,3,1.0000,1.0000,73.6340,1,1,0x200265E1710,0.881,-0.473
262.538,1788987006.784,2522.251,-1007.953,-74327.851,0.000,0.000,-1000.000,0.000,44053.837,-23648.668,0.000,50000.0,1.0000,3,1.0000,1.0000,73.7340,1,1,0x200265E1710,0.881,-0.473
262.641,1788987006.887,2522.251,-1007.953,-74430.301,0.000,0.000,-1000.000,0.000,44053.837,-23648.668,0.000,50000.0,1.0000,3,1.0000,1.0000,73.8340,1,1,0x200265E1710,0.881,-0.473
262.751,1788987006.997,2522.251,-1007.953,-74532.752,0.000,0.000,-1000.000,0.000,44053.837,-23648.668,0.000,50000.0,1.0000,3,1.0000,1.0000,73.9340,1,1,0x200265E1710,0.881,-0.473
262.854,1788987007.101,2522.251,-1007.953,-74635.203,0.000,0.000,-1000.000,0.000,44053.837,-23648.668,0.000,50000.0,1.0000,3,1.0000,1.0000,74.0340,1,1,0x200265E1710,0.881,-0.473
262.976,1788987007.222,2522.251,-1007.953,-74771.804,0.000,0.000,-1000.000,0.000,44053.837,-23648.668,0.000,50000.0,1.0000,3,1.0000,1.0000,74.1673,1,1,0x200265E1710,0.881,-0.473
263.079,1788987007.326,2522.251,-1007.953,-74874.255,0.000,0.000,-1000.000,0.000,44053.837,-23648.668,0.000,50000.0,1.0000,3,1.0000,1.0000,74.2673,1,1,0x200265E1710,0.881,-0.473
263.183,1788987007.429,2522.251,-1007.953,-74976.706,0.000,0.000,-1000.000,0.000,44053.837,-23648.668,0.000,50000.0,1.0000,3,1.0000,1.0000,74.3673,1,1,0x200265E1710,0.881,-0.473
263.285,1788987007.530,2522.251,-1007.953,-75079.157,0.000,0.000,-1000.000,0.000,44053.837,-23648.668,0.000,50000.0,1.0000,3,1.0000,1.0000,74.4673,1,1,0x200265E1710,0.881,-0.473
263.401,1788987007.648,2522.251,-1007.953,-75216.955,0.000,0.000,-1000.000,0.000,44053.837,-23648.668,0.000,50000.0,1.0000,3,1.0000,1.0000,74.6018,1,1,0x200265E1710,0.881,-0.473
263.505,1788987007.750,2522.251,-1007.953,-75319.406,0.000,0.000,-1000.000,0.000,44053.837,-23648.668,0.000,50000.0,1.0000,3,1.0000,1.0000,74.7018,1,1,0x200265E1710,0.881,-0.473
